Timestamp	Quat_w	Quat_x	Quat_y	Quat_z	Timestamp	Acc_x	Acc_y	Acc_z	Timestamp	Gyro_x	Gyro_y	Gyro_z			Timestamp	Quat_w_n	Quat_x_n	Quat_y_n	Quat_z_n	Modulo Quat
0	10749	-43	-12360	366	0	2017	-43	-309	0	-14	-1	17			0	0.656053514	-0.002624458	-0.754379145	0.022338412	16384.33416
0.01	10748	-39	-12361	370	0.01	2003	-41	-305	0.01	33	7	18			0.01	0.655985345	-0.002380297	-0.754431973	0.022582302	16384.51238
0.02	10748	-38	-12361	369	0.02	2032	-25	-297	0.02	-15	5	13			0.02	0.655986342	-0.002319267	-0.754433119	0.022521303	16384.48748
0.03	10751	-36	-12358	370	0.03	2019	-14	-256	0.03	17	9	29			0.03	0.656180525	-0.002197237	-0.75426276	0.022582717	16384.21072
0.04	10754	-33	-12356	370	0.04	2026	-19	-260	0.04	15	7	18			0.04	0.656345438	-0.002014078	-0.754119791	0.022582092	16384.66481
0.05	10754	-33	-12355	369	0.05	2020	-25	-256	0.05	-1	-7	21			0.05	0.656376551	-0.002014174	-0.754094503	0.022522126	16383.88815
0.06	10755	-32	-12354	373	0.06	2017	-37	-279	0.06	25	4	28			0.06	0.65643795	-0.001953139	-0.754033885	0.022766281	16383.87909
0.07	10752	-33	-12356	375	0.07	2018	-56	-305	0.07	2	-7	22			0.07	0.656271395	-0.002014226	-0.754174977	0.02288893	16383.46587
0.08	10751	-33	-12357	378	0.08	2020	-52	-300	0.08	14	2	24			0.08	0.656203673	-0.002014205	-0.754228331	0.023071806	16383.63278
0.09	10751	-33	-12357	377	0.09	2020	-45	-296	0.09	8	10	15			0.09	0.656204595	-0.002014208	-0.754229391	0.023010802	16383.60974
0.1	10751	-32	-12357	376	0.1	2011	-26	-282	0.1	5	-5	15			0.1	0.656205595	-0.001953175	-0.754230541	0.0229498	16383.58477
0.11	10752	-30	-12357	376	0.11	2021	-18	-283	0.11	14	7	23			0.11	0.656240499	-0.001831028	-0.754200506	0.022948886	16384.23721
0.12	10751	-28	-12358	377	0.12	2020	-33	-290	0.12	7	-4	19			0.12	0.65617476	-0.001708947	-0.754256133	0.023009756	16384.35467
0.13	10751	-27	-12357	376	0.13	2021	-22	-278	0.13	7	-3	21			0.13	0.656205956	-0.001647992	-0.754230955	0.022949813	16383.57577
0.14	10750	-26	-12359	378	0.14	2020	-32	-303	0.14	16	1	25			0.14	0.656109006	-0.001586868	-0.75431174	0.023070624	16384.47256
0.15	10749	-27	-12359	380	0.15	2018	-50	-297	0.15	6	-1	23			0.15	0.656072326	-0.001647963	-0.754339742	0.023193551	16383.86435
0.16	10750	-27	-12359	381	0.16	2023	-43	-282	0.16	8	7	23			0.16	0.656106158	-0.001647895	-0.754308466	0.023253623	16384.54366
0.17	10751	-26	-12357	382	0.17	2034	-38	-275	0.17	9	6	19			0.17	0.656200462	-0.001586942	-0.75422464	0.023315838	16383.71295
0.18	10752	-25	-12356	382	0.18	2027	-34	-271	0.18	4	2	22			0.18	0.656265484	-0.001525915	-0.754168185	0.02331598	16383.61343
0.19	10753	-24	-12355	383	0.19	2018	-30	-271	0.19	12	1	22			0.19	0.656329565	-0.001464885	-0.754110646	0.023377125	16383.53744
0.2	10753	-23	-12356	384	0.2	2010	-40	-292	0.2	8	0	18			0.2	0.656298476	-0.001403782	-0.754135959	0.023437051	16384.31353
0.21	10751	-23	-12357	385	0.21	2021	-37	-298	0.21	9	-4	25			0.21	0.656197829	-0.001403828	-0.754221614	0.023498853	16383.77869
0.22	10751	-22	-12358	387	0.22	2027	-40	-297	0.22	12	4	21			0.22	0.65616579	-0.001342726	-0.754245822	0.023619771	16384.57866
0.23	10750	-22	-12358	388	0.23	2021	-37	-303	0.23	9	6	25			0.23	0.656130086	-0.001342778	-0.754274939	0.023681718	16383.94617
0.24	10750	-21	-12358	389	0.24	2011	-39	-284	0.24	8	-2	22			0.24	0.656129188	-0.001281741	-0.754273908	0.023742721	16383.96857
0.25	10750	-21	-12358	388	0.25	2019	-24	-278	0.25	13	2	10			0.25	0.656130138	-0.001281743	-0.754275	0.02368172	16383.94485
0.26	10749	-21	-12359	389	0.26	2029	-27	-293	0.26	9	1	32			0.26	0.656064221	-0.001281733	-0.754330422	0.023742579	16384.06677
0.27	10750	-19	-12358	390	0.27	2019	-28	-278	0.27	10	0	20			0.27	0.656128334	-0.001159669	-0.754272926	0.023803726	16383.9899
0.28	10751	-17	-12358	389	0.28	2025	-27	-280	0.28	9	4	20			0.28	0.656164131	-0.001037558	-0.754243916	0.023741777	16384.62007
0.29	10751	-18	-12357	391	0.29	2018	-40	-284	0.29	8	3	30			0.29	0.656192388	-0.001098639	-0.754215361	0.023864871	16383.91452
0.3	10751	-18	-12357	391	0.3	2025	-46	-283	0.3	13	4	12			0.3	0.656192388	-0.001098639	-0.754215361	0.023864871	16383.91452
0.31	10751	-17	-12357	392	0.31	2015	-35	-280	0.31	6	-1	23			0.31	0.656191474	-0.001037602	-0.75421431	0.023925873	16383.93735
0.32	10752	-16	-12357	392	0.32	2020	-24	-276	0.32	9	1	21			0.32	0.656226267	-0.000976527	-0.75418415	0.023924916	16384.59255
0.33	10750	-13	-12358	391	0.33	2022	-19	-301	0.33	12	1	17			0.33	0.656127614	-0.000793457	-0.754272098	0.023864735	16384.00787
0.34	10749	-13	-12359	392	0.34	2012	-35	-298	0.34	8	1	29			0.34	0.65606169	-0.000793451	-0.754327512	0.023925591	16384.12997
0.35	10749	-12	-12359	393	0.35	2020	-33	-294	0.35	12	5	20			0.35	0.656060761	-0.000732415	-0.754326444	0.023986592	16384.15317
0.36	10749	-12	-12359	395	0.36	2023	-47	-289	0.36	8	1	22			0.36	0.656058835	-0.000732413	-0.75432423	0.024108591	16384.20126
0.37	10750	-12	-12358	397	0.37	2030	-43	-275	0.37	8	1	25			0.37	0.656121867	-0.000732415	-0.754265491	0.024230733	16384.1514
0.38	10750	-12	-12358	396	0.38	2012	-45	-287	0.38	10	2	15			0.38	0.656122836	-0.000732416	-0.754266605	0.024169734	16384.1272
0.39	10749	-11	-12359	397	0.39	2022	-33	-288	0.39	8	-2	22			0.39	0.656056928	-0.000671377	-0.754322037	0.024230589	16384.2489
0.4	10749	-10	-12359	397	0.4	2018	-34	-290	0.4	7	3	19			0.4	0.656056954	-0.000610342	-0.754322066	0.02423059	16384.24826
0.41	10749	-8	-12359	397	0.41	2023	-29	-287	0.41	12	2	21			0.41	0.656056998	-0.000488274	-0.754322117	0.024230592	16384.24716
0.42	10749	-8	-12359	398	0.42	2017	-32	-291	0.42	7	1	25			0.42	0.656056026	-0.000488273	-0.754321	0.02429159	16384.27142
0.43	10750	-6	-12358	399	0.43	2015	-33	-274	0.43	12	4	19			0.43	0.656120053	-0.000366207	-0.754263406	0.024352735	16384.19668
0.44	10750	-6	-12358	400	0.44	2012	-36	-284	0.44	9	0	24			0.44	0.656119077	-0.000366206	-0.754262284	0.024413733	16384.22107
0.45	10750	-5	-12358	401	0.45	2026	-36	-290	0.45	8	1	19			0.45	0.656118111	-0.000305171	-0.754261174	0.024474731	16384.24518
0.46	10750	-3	-12358	401	0.46	2015	-29	-276	0.46	10	1	20			0.46	0.656118131	-0.000183103	-0.754261196	0.024474732	16384.24469
0.47	10749	-3	-12358	401	0.47	2023	-32	-292	0.47	8	-1	23			0.47	0.656083369	-0.00018311	-0.754291402	0.024475712	16383.58859
0.48	10750	-1	-12358	402	0.48	2017	-33	-286	0.48	11	3	19			0.48	0.656117159	-6.10342E-05	-0.754260079	0.02453573	16384.26895
0.49	10751	0	-12357	403	0.49	2019	-29	-275	0.49	9	2	24			0.49	0.656181139	0	-0.754202431	0.024596875	16384.1954
0.5	10751	1	-12357	403	0.5	2018	-38	-280	0.5	9	3	19			0.5	0.656181138	6.10344E-05	-0.754202429	0.024596875	16384.19543
0.51	10747	2	-12360	409	0.51	2027	-51	-299	0.51	32	-23	26			0.51	0.655945511	0.00012207	-0.754395321	0.024963405	16383.98285
0.52	10747	3	-12360	408	0.52	2014	-26	-299	0.52	-12	-1	6			0.52	0.655946503	0.000183106	-0.754396462	0.024902407	16383.95807
0.53	10743	9	-12363	409	0.53	2015	-31	-294	0.53	26	-21	4			0.53	0.655715677	0.000549329	-0.754594891	0.02496395	16383.62536
0.54	10747	11	-12361	394	0.54	2028	-55	-276	0.54	-50	19	-54			0.54	0.655929881	0.000671371	-0.754438379	0.024047304	16384.37326
0.55	10729	23	-12376	383	0.55	2001	41	-335	0.55	2	-105	-30			0.55	0.654860123	0.001403838	-0.755387163	0.023376962	16383.65146
0.56	10757	15	-12351	430	0.56	2003	-23	-212	0.56	177	175	230			0.56	0.656543046	0.00091551	-0.753831288	0.026244632	16384.3027
0.57	10742	29	-12364	431	0.57	2048	-156	-378	0.57	47	-64	-94			0.57	0.655627185	0.001769986	-0.754624326	0.026305652	16384.31146
0.58	10743	41	-12363	435	0.58	1997	60	-285	0.58	72	7	37			0.58	0.655686922	0.002502389	-0.7545618	0.026549736	16384.34387
0.59	10758	45	-12348	459	0.59	2026	-107	-253	0.59	114	103	48			0.59	0.656634658	0.002746659	-0.753683282	0.028015924	16383.53973
0.6	10761	55	-12346	447	0.6	2012	31	-303	0.6	-6	33	-27			0.6	0.656811288	0.003356995	-0.753553773	0.027283212	16383.70138
0.61	10763	54	-12344	461	0.61	2029	-73	-285	0.61	57	19	59			0.61	0.656925687	0.00329592	-0.7534229	0.028137391	16383.89276
0.62	10767	63	-12341	450	0.62	1999	16	-260	0.62	-6	22	-29			0.62	0.657166038	0.003845218	-0.753235448	0.027465842	16383.98727
0.63	10766	54	-12341	455	0.63	2019	-41	-271	0.63	-11	-7	78			0.63	0.65712711	0.003296012	-0.753260789	0.027771952	16383.43609
0.64	10763	35	-12345	443	0.64	2016	-32	-285	0.64	-120	-23	60			0.64	0.656917457	0.002136218	-0.753474496	0.027038412	16384.09802
0.65	10762	17	-12345	449	0.65	2023	-5	-280	0.65	-36	1	139			0.65	0.656877355	0.001037625	-0.753498509	0.027405495	16383.57589
0.66	10751	-29	-12355	454	0.66	2022	-86	-287	0.66	-147	-70	214			0.66	0.656187098	-0.001770014	-0.754087211	0.027709882	16384.0466
0.67	10757	-23	-12349	465	0.67	2034	-184	-259	0.67	59	32	-35			0.67	0.656564778	-0.001403829	-0.753734168	0.028381763	16383.76037
0.68	10760	69	-12349	402	0.68	1997	177	-150	0.68	88	-72	-489			0.68	0.656730563	0.004211376	-0.753714286	0.024535844	16384.19256
0.69	10750	46	-12358	407	0.69	2029	60	-521	0.69	-49	59	186			0.69	0.656109631	0.002807539	-0.754251426	0.024840616	16384.45693
0.7	10762	21	-12346	432	0.7	2047	-194	-119	0.7	1	12	137			0.7	0.656865284	0.001281748	-0.753545697	0.026367385	16383.87698
0.71	10757	53	-12352	379	0.71	2021	21	-272	0.71	-100	-53	-284			0.71	0.656560132	0.003234888	-0.753911942	0.023132499	16383.87631
0.72	10748	21	-12360	401	0.72	2018	-47	-461	0.72	-25	33	228			0.72	0.655987666	0.001281703	-0.754373609	0.024474419	16384.4544
0.73	10762	12	-12347	418	0.73	2031	-150	-128	0.73	35	26	59			0.73	0.656849995	0.00073241	-0.753589192	0.025512293	16384.25833
0.74	10753	39	-12355	381	0.74	2021	55	-317	0.74	-47	-52	-183			0.74	0.656330278	0.002380441	-0.754111465	0.023255076	16383.51965
0.75	10757	20	-12352	403	0.75	2026	-18	-351	0.75	27	67	189			0.75	0.656540127	0.001220675	-0.75388897	0.024596604	16384.37555
0.76	10761	22	-12348	409	0.76	2023	-96	-192	0.76	29	-13	-2			0.76	0.65679377	0.001342762	-0.753655745	0.024963168	16384.13837
0.77	10753	41	-12356	385	0.77	2006	47	-339	0.77	-22	-37	-103			0.77	0.656296128	0.002502385	-0.754133261	0.023498001	16384.37216
0.78	10756	20	-12352	411	0.78	2027	-73	-329	0.78	33	59	183			0.78	0.656497436	0.001220709	-0.753910035	0.025085575	16383.91775
0.79	10756	25	-12352	414	0.79	2030	-100	-239	0.79	27	-24	-27			0.79	0.656494135	0.001525879	-0.753906243	0.025268554	16384.00015
0.8	10750	38	-12358	399	0.8	2004	39	-327	0.8	-10	-26	-47			0.8	0.656118332	0.002319302	-0.754261428	0.024352671	16384.23965
0.81	10757	22	-12351	419	0.81	2016	-76	-283	0.81	28	57	136			0.81	0.65655415	0.001342771	-0.753844037	0.025573691	16384.0256
0.82	10754	30	-12353	414	0.82	2024	-75	-249	0.82	6	-35	-51			0.82	0.656394121	0.001831116	-0.753992614	0.025269404	16383.44961
0.83	10754	31	-12354	412	0.83	2003	32	-326	0.83	-4	-11	-5			0.83	0.656365858	0.001892072	-0.754021184	0.025146246	16384.15506
0.84	10761	19	-12347	426	0.84	2032	-73	-268	0.84	13	52	106			0.84	0.656806766	0.001159681	-0.753609621	0.026001271	16383.81418
0.85	10756	27	-12352	418	0.85	2020	-41	-275	0.85	-2	-41	-45			0.85	0.656489938	0.001647939	-0.753901424	0.025512532	16384.10489
0.86	10754	30	-12354	415	0.86	2014	15	-326	0.86	6	8	25			0.86	0.6563629	0.001831029	-0.754017785	0.025329236	16384.22891
0.87	10759	21	-12349	427	0.87	2027	-75	-268	0.87	17	35	79			0.87	0.656675783	0.001281735	-0.753721465	0.026061954	16384.0365
0.88	10753	31	-12354	419	0.88	2020	-31	-302	0.88	4	-39	-44			0.88	0.656324005	0.001892127	-0.754043221	0.025574236	16383.67624
0.89	10753	31	-12354	420	0.89	2013	-4	-309	0.89	10	17	41			0.89	0.656322979	0.001892124	-0.754042043	0.025635232	16383.70184
0.9	10756	25	-12352	427	0.9	2028	-69	-271	0.9	11	17	54			0.9	0.656480766	0.001525848	-0.753890891	0.026061481	16384.3338
0.91	10751	35	-12356	419	0.91	2012	-11	-297	0.91	2	-30	-38			0.91	0.656193772	0.002136246	-0.754155915	0.025573918	16383.87997
0.92	10753	33	-12355	423	0.92	2020	-9	-304	0.92	14	24	58			0.92	0.656289526	0.002014094	-0.754064641	0.025817025	16384.53698
0.93	10755	30	-12353	428	0.93	2017	-64	-264	0.93	11	7	36			0.93	0.656414445	0.001831003	-0.753945853	0.026122304	16384.46575
0.94	10751	36	-12356	422	0.94	2013	-21	-296	0.94	4	-18	-19			0.94	0.656190601	0.002197271	-0.754152272	0.0257569	16383.95914
0.95	10753	32	-12354	428	0.95	2013	-35	-297	0.95	12	23	63			0.95	0.656314608	0.001953136	-0.754032426	0.026123189	16383.9108
0.96	10753	32	-12354	428	0.96	2023	-54	-267	0.96	11	-4	10			0.96	0.656314608	0.001953136	-0.754032426	0.026123189	16383.9108
0.97	10753	33	-12354	427	0.97	2016	-12	-295	0.97	9	-13	-4			0.97	0.656315574	0.002014174	-0.754033535	0.026062192	16383.88669
0.98	10756	29	-12352	432	0.98	2019	-37	-286	0.98	10	24	57			0.98	0.65647525	0.001769969	-0.753884557	0.026366429	16384.47146
0.99	10756	30	-12352	431	0.99	2026	-41	-287	0.99	8	-9	0			0.99	0.656476233	0.001831005	-0.753885685	0.026305435	16384.44692
1	10755	32	-12353	429	1	2012	-14	-287	1	6	-2	16			1	0.656413246	0.001953066	-0.753944475	0.02618329	16384.49569
1.01	10758	29	-12350	435	1.01	2017	-49	-271	1.01	13	19	46			1.01	0.656601934	0.001769981	-0.75376779	0.026549716	16384.35626
1.02	10758	30	-12350	434	1.02	2031	-34	-273	1.02	6	-13	1			1.02	0.656602924	0.001831018	-0.753768927	0.026488722	16384.33154
1.03	10758	30	-12350	435	1.03	2020	-33	-290	1.03	10	4	26			1.03	0.656601861	0.001831015	-0.753767707	0.026549713	16384.35806
1.04	10760	29	-12348	438	1.04	2017	-53	-272	1.04	9	10	30			1.04	0.656728577	0.001769993	-0.753650973	0.026733003	16384.24209
1.05	10759	30	-12348	437	1.05	2016	-26	-287	1.05	8	-12	2			1.05	0.656694863	0.001831104	-0.753682328	0.026673079	16383.56048
1.06	10759	31	-12348	439	1.06	2024	-24	-297	1.06	13	8	31			1.06	0.656692645	0.001892134	-0.753679782	0.026795062	16383.61581
1.07	10760	30	-12347	440	1.07	2034	-42	-281	1.07	6	8	24			1.07	0.656756566	0.001831106	-0.753622056	0.026856216	16383.54385
1.08	10760	31	-12347	439	1.08	2021	-27	-284	1.08	8	-6	11			1.08	0.656757567	0.001892145	-0.753623204	0.02679522	16383.51888
1.09	10761	30	-12347	441	1.09	2025	-38	-283	1.09	10	9	34			1.09	0.656790196	0.001831029	-0.75359061	0.02691613	16384.22751
1.1	10760	30	-12348	444	1.1	2014	-56	-296	1.1	12	1	23			1.1	0.656722032	0.001831009	-0.753643462	0.027098939	16384.40539
1.11	10759	31	-12348	443	1.11	2020	-34	-304	1.11	9	-5	12			1.11	0.656688329	0.001892122	-0.75367483	0.027039031	16383.72348
1.12	10760	30	-12347	445	1.12	2021	-41	-283	1.12	9	9	28			1.12	0.656751153	0.001831091	-0.753615844	0.027161177	16383.67889
1.13	10760	31	-12348	446	1.13	2017	-39	-286	1.13	10	-1	20			1.13	0.65671978	0.001892037	-0.753640878	0.027220913	16384.46157
1.14	10759	32	-12348	445	1.14	2018	-22	-293	1.14	7	-2	13			1.14	0.65668608	0.001953151	-0.753672248	0.02716101	16383.7796
1.15	10761	32	-12347	446	1.15	2018	-30	-279	1.15	9	8	31			1.15	0.656784619	0.001953081	-0.753584211	0.027221071	16384.36663
1.16	10760	34	-12347	447	1.16	2023	-36	-277	1.16	10	-2	19			1.16	0.656748657	0.002075228	-0.753612981	0.027283146	16383.74115
1.17	10760	35	-12348	447	1.17	2025	-38	-295	1.17	8	1	20			1.17	0.656718365	0.002136166	-0.753639254	0.027281887	16384.49688
1.18	10760	35	-12348	449	1.18	2021	-33	-288	1.18	9	5	31			1.18	0.656716173	0.002136159	-0.753636738	0.027403863	16384.55157
1.19	10759	35	-12348	448	1.19	2022	-35	-289	1.19	9	-3	10			1.19	0.656682557	0.002136248	-0.753668205	0.027343971	16383.86749
1.2	10760	36	-12348	449	1.2	2017	-37	-282	1.2	9	3	20			1.2	0.656716086	0.002197191	-0.753636639	0.027403859	16384.55373
1.21	10759	36	-12348	450	1.21	2026	-33	-299	1.21	9	5	30			1.21	0.656680273	0.002197276	-0.753665584	0.027465947	16383.92447
1.22	10759	37	-12348	449	1.22	2011	-28	-286	1.22	8	0	13			1.22	0.656681284	0.002258315	-0.753666743	0.027404954	16383.89926
1.23	10758	37	-12349	451	1.23	2010	-34	-293	1.23	8	2	30			1.23	0.656614157	0.002258294	-0.753720787	0.027526769	16384.05124
1.24	10759	37	-12348	451	1.24	2031	-38	-275	1.24	6	3	22			1.24	0.656679082	0.002258307	-0.753664216	0.027526932	16383.95419
1.25	10759	38	-12348	450	1.25	2023	-39	-281	1.25	14	0	15			1.25	0.656680092	0.002319346	-0.753665376	0.027465939	16383.92899
1.26	10759	38	-12348	452	1.26	2017	-37	-274	1.26	7	1	27			1.26	0.656677886	0.002319338	-0.753662844	0.027587918	16383.98404
1.27	10759	38	-12348	451	1.27	2022	-30	-285	1.27	11	4	13			1.27	0.65667899	0.002319342	-0.753664111	0.027526929	16383.95648
1.28	10758	40	-12349	450	1.28	2018	-21	-289	1.28	9	-1	22			1.28	0.656614977	0.002441402	-0.753721728	0.027465769	16384.03079
1.29	10758	40	-12349	452	1.29	2017	-39	-286	1.29	7	4	27			1.29	0.656612771	0.002441393	-0.753719195	0.027587746	16384.08585
1.3	10758	42	-12349	452	1.3	2028	-38	-293	1.3	12	2	18			1.3	0.65661257	0.002563462	-0.753718965	0.027587738	16384.09085
1.31	10757	41	-12350	454	1.31	2011	-36	-290	1.31	8	0	28			1.31	0.656545527	0.002502405	-0.753773102	0.027709554	16384.24078
1.32	10757	42	-12350	455	1.32	2015	-41	-292	1.32	10	4	19			1.32	0.656544314	0.002563434	-0.753771709	0.027770537	16384.27105
1.33	10755	44	-12351	455	1.33	2015	-36	-293	1.33	10	-2	19			1.33	0.656444439	0.002685593	-0.75385823	0.027771476	16383.71713
1.34	10756	45	-12351	455	1.34	2023	-29	-278	1.34	9	1	21			1.34	0.656479063	0.002746519	-0.753827901	0.027770358	16384.37631
1.35	10756	47	-12351	456	1.35	2022	-32	-285	1.35	13	3	20			1.35	0.656477724	0.002868581	-0.753826363	0.027831335	16384.40972
1.36	10755	47	-12352	458	1.36	2017	-43	-300	1.36	7	1	26			1.36	0.656410553	0.002868554	-0.753880348	0.027953141	16384.56292
1.37	10754	48	-12352	457	1.37	2026	-27	-292	1.37	7	3	19			1.37	0.656376818	0.002929709	-0.753911703	0.027893268	16383.8815
1.38	10755	50	-12352	457	1.38	2015	-33	-281	1.38	10	2	20			1.38	0.656411316	0.003051657	-0.753881225	0.027892141	16384.54388
1.39	10754	50	-12352	458	1.39	2022	-35	-289	1.39	8	0	24			1.39	0.656375459	0.003051774	-0.753910143	0.027954246	16383.91541
1.4	10754	52	-12352	459	1.4	2011	-40	-289	1.4	11	3	18			1.4	0.656374089	0.003173838	-0.753908568	0.028015223	16383.94962
1.41	10753	52	-12353	460	1.41	2016	-37	-291	1.41	8	1	24			1.41	0.656308021	0.003173814	-0.753963822	0.028076043	16384.07526
1.42	10752	53	-12354	461	1.42	2020	-36	-302	1.42	9	1	21			1.42	0.656241818	0.003234823	-0.754018919	0.028136856	16384.20428
1.43	10751	54	-12355	462	1.43	2022	-41	-293	1.43	11	1	21			1.43	0.656175606	0.003295831	-0.754074004	0.028197668	16384.33355
1.44	10751	54	-12355	463	1.44	2019	-44	-285	1.44	8	1	23			1.44	0.656174476	0.003295826	-0.754072704	0.028258653	16384.36178
1.45	10751	56	-12355	462	1.45	2013	-25	-289	1.45	6	4	16			1.45	0.656175337	0.003417898	-0.754073695	0.028197657	16384.34027
1.46	10751	56	-12355	463	1.46	2018	-35	-286	1.46	10	1	23			1.46	0.656174207	0.003417892	-0.754072395	0.028258642	16384.3685
1.47	10749	58	-12356	463	1.47	2021	-27	-300	1.47	9	-1	21			1.47	0.65607421	0.003540079	-0.754158799	0.028259592	16383.81732
1.48	10750	59	-12355	463	1.48	2019	-30	-282	1.48	8	3	20			1.48	0.656139028	0.003601135	-0.754102111	0.028259755	16383.72287
1.49	10745	118	-12360	432	1.49	2016	-38	-293	1.49	-2	-2	3			1.49	0.655835316	0.007202286	-0.754408981	0.026367693	16383.68618
1.5	10745	118	-12360	431	1.5	2014	-32	-288	1.5	2	1	-4			1.5	0.65583637	0.007202298	-0.754410194	0.026306699	16383.65985
1.51	10745	119	-12360	431	1.51	2022	-36	-290	1.51	-2	-1	3			1.51	0.65583608	0.007263331	-0.754409861	0.026306687	16383.66708
1.52	10745	119	-12360	430	1.52	2019	-41	-295	1.52	0	1	1			1.52	0.655837132	0.007263343	-0.754411071	0.026245693	16383.6408
1.53	10745	119	-12360	430	1.53	2025	-38	-279	1.53	-1	2	0			1.53	0.655837132	0.007263343	-0.754411071	0.026245693	16383.6408
1.54	10745	120	-12360	429	1.54	2018	-39	-275	1.54	-3	0	1			1.54	0.65583789	0.007324388	-0.754411942	0.026184686	16383.62188
1.55	10745	120	-12360	429	1.55	2015	-36	-277	1.55	3	0	-7			1.55	0.65583789	0.007324388	-0.754411942	0.026184686	16383.62188
1.56	10745	120	-12360	428	1.56	2023	-37	-284	1.56	-2	-4	2			1.56	0.655838937	0.007324399	-0.754413146	0.026123691	16383.59573
1.57	10745	121	-12360	428	1.57	2017	-31	-298	1.57	-1	-2	-2			1.57	0.655838642	0.007385433	-0.754412808	0.02612368	16383.60308
1.58	10745	121	-12361	427	1.58	2021	-25	-305	1.58	1	-1	-2			1.58	0.655809488	0.007385105	-0.754440305	0.026061485	16384.33142
1.59	10745	122	-12361	427	1.59	2018	-35	-285	1.59	-1	1	6			1.59	0.655809191	0.007446135	-0.754439964	0.026061473	16384.33883
1.6	10745	122	-12361	426	1.6	2017	-35	-283	1.6	-1	3	-3			1.6	0.655810233	0.007446147	-0.754441163	0.02600048	16384.3128
1.61	10745	123	-12361	426	1.61	2022	-37	-282	1.61	-2	0	1			1.61	0.655809934	0.007507177	-0.754440818	0.026000468	16384.32028
1.62	10745	123	-12361	426	1.62	2020	-42	-276	1.62	-2	-1	2			1.62	0.655809934	0.007507177	-0.754440818	0.026000468	16384.32028
1.63	10745	123	-12361	425	1.63	2020	-41	-295	1.63	1	-2	-6			1.63	0.655810973	0.007507189	-0.754442014	0.025939475	16384.29431
1.64	10745	124	-12361	425	1.64	2009	-35	-283	1.64	-1	-1	3			1.64	0.655810672	0.00756822	-0.754441667	0.025939464	16384.30185
1.65	10745	124	-12361	424	1.65	2021	-33	-286	1.65	1	0	-5			1.65	0.655811709	0.007568232	-0.75444286	0.02587847	16384.27594
1.66	10745	125	-12361	424	1.66	2020	-28	-289	1.66	0	1	0			1.66	0.655811405	0.007629263	-0.75444251	0.025878458	16384.28354
1.67	10745	125	-12361	423	1.67	2019	-25	-287	1.67	-2	2	3			1.67	0.655812439	0.007629275	-0.7544437	0.025817465	16384.25769
1.68	10744	126	-12361	422	1.68	2012	-26	-290	1.68	0	0	-5			1.68	0.655778379	0.007690625	-0.754474734	0.02575749	16383.58377
1.69	10745	126	-12361	422	1.69	2026	-38	-283	1.69	-2	-2	5			1.69	0.655813165	0.007690317	-0.754444535	0.025756459	16384.23956
1.7	10745	126	-12361	422	1.7	2021	-47	-282	1.7	1	-1	-2			1.7	0.655813165	0.007690317	-0.754444535	0.025756459	16384.23956
1.71	10744	126	-12361	421	1.71	2016	-43	-289	1.71	-1	0	-3			1.71	0.655779409	0.007690637	-0.754475919	0.025696494	16383.55804
1.72	10744	127	-12361	421	1.72	2026	-37	-290	1.72	-1	2	1			1.72	0.655779099	0.00775167	-0.754475563	0.025696482	16383.56576
1.73	10744	127	-12361	421	1.73	2007	-32	-288	1.73	2	2	-6			1.73	0.655779099	0.00775167	-0.754475563	0.025696482	16383.56576
1.74	10744	128	-12361	420	1.74	2018	-33	-287	1.74	-2	-1	3			1.74	0.655779815	0.007812716	-0.754476387	0.025635473	16383.54788
1.75	10744	128	-12361	420	1.75	2023	-32	-275	1.75	1	1	-2			1.75	0.655779815	0.007812716	-0.754476387	0.025635473	16383.54788
1.76	10744	128	-12362	419	1.76	2012	-36	-298	1.76	0	-2	-3			1.76	0.655750642	0.007812368	-0.754503856	0.025573298	16384.27676
1.77	10744	129	-12362	419	1.77	2014	-38	-304	1.77	-2	-1	5			1.77	0.655750328	0.007873398	-0.754503495	0.025573286	16384.2846
1.78	10744	129	-12362	419	1.78	2026	-40	-291	1.78	0	2	-5			1.78	0.655750328	0.007873398	-0.754503495	0.025573286	16384.2846
1.79	10744	129	-12362	418	1.79	2003	-41	-283	1.79	-2	0	2			1.79	0.65575135	0.007873411	-0.754504671	0.025512292	16384.25906
1.8	10744	130	-12362	418	1.8	2018	-27	-277	1.8	-1	1	0			1.8	0.655751034	0.007934441	-0.754504307	0.02551228	16384.26697
1.81	10744	130	-12362	417	1.81	2033	-39	-281	1.81	1	0	-4			1.81	0.655752054	0.007934453	-0.754505481	0.025451285	16384.24148
1.82	10744	130	-12362	417	1.82	2011	-29	-295	1.82	-1	-2	4			1.82	0.655752054	0.007934453	-0.754505481	0.025451285	16384.24148
1.83	10744	131	-12362	416	1.83	2015	-34	-289	1.83	0	-2	-3			1.83	0.655752752	0.007995496	-0.754506285	0.025390278	16384.22403
1.84	10743	131	-12362	416	1.84	2016	-34	-289	1.84	0	-2	3			1.84	0.655717961	0.007995816	-0.754536483	0.025391294	16383.56829
1.85	10743	131	-12362	416	1.85	2022	-45	-293	1.85	-2	-1	4			1.85	0.655717961	0.007995816	-0.754536483	0.025391294	16383.56829
1.86	10743	132	-12362	415	1.86	2020	-38	-276	1.86	-1	1	-5			1.86	0.655718655	0.008056861	-0.754537281	0.025330284	16383.55096
1.87	10744	132	-12362	415	1.87	2021	-33	-276	1.87	-1	0	5			1.87	0.655753446	0.008056539	-0.754507083	0.02532927	16384.20669
1.88	10744	132	-12362	415	1.88	2019	-33	-273	1.88	-2	0	-1			1.88	0.655753446	0.008056539	-0.754507083	0.02532927	16384.20669
1.89	10744	133	-12362	414	1.89	2025	-36	-301	1.89	2	-1	-1			1.89	0.655754135	0.008117582	-0.754507876	0.025268262	16384.18948
1.9	10744	133	-12362	414	1.9	2023	-38	-278	1.9	-3	-3	2			1.9	0.655754135	0.008117582	-0.754507876	0.025268262	16384.18948
1.91	10743	133	-12362	413	1.91	2012	-38	-308	1.91	1	0	-6			1.91	0.655720354	0.008117919	-0.754539236	0.025208276	16383.50851
1.92	10743	134	-12363	413	1.92	2015	-29	-296	1.92	-1	-1	3			1.92	0.65568983	0.008178576	-0.754565146	0.025207102	16384.27121
1.93	10743	134	-12363	413	1.93	2008	-37	-293	1.93	-2	0	1			1.93	0.65568983	0.008178576	-0.754565146	0.025207102	16384.27121
1.94	10743	134	-12363	412	1.94	2020	-33	-281	1.94	0	2	-1			1.94	0.655690837	0.008178588	-0.754566306	0.025146107	16384.24603
1.95	10743	135	-12363	412	1.95	2028	-29	-284	1.95	-2	-2	5			1.95	0.655690509	0.008239618	-0.754565928	0.025146094	16384.25424
1.96	10743	135	-12363	411	1.96	2018	-36	-292	1.96	1	0	-4			1.96	0.655691514	0.008239631	-0.754567084	0.025085098	16384.22912
1.97	10743	136	-12363	411	1.97	2021	-27	-288	1.97	0	-3	0			1.97	0.655691183	0.008300661	-0.754566703	0.025085086	16384.23739
1.98	10743	136	-12363	410	1.98	2015	-35	-289	1.98	-2	0	-2			1.98	0.655692186	0.008300674	-0.754567857	0.02502409	16384.21234
1.99	10742	136	-12363	410	1.99	2023	-38	-303	1.99	0	2	-2			1.99	0.65565739	0.008301006	-0.754598055	0.025025091	16383.55667
2	10742	137	-12364	410	2	2026	-33	-298	2	-2	0	4			2	0.655626859	0.008361653	-0.754623951	0.025023926	16384.31961
2.01	10742	137	-12364	409	2.01	2013	-32	-284	2.01	1	0	-4			2.01	0.655627859	0.008361666	-0.754625102	0.02496293	16384.29461
2.02	10742	137	-12364	409	2.02	2019	-31	-288	2.02	-2	-2	2			2.02	0.655627859	0.008361666	-0.754625102	0.02496293	16384.29461
2.03	10742	138	-12364	409	2.03	2018	-41	-284	2.03	1	-1	2			2.03	0.655627523	0.008422696	-0.754624716	0.024962917	16384.30301
2.04	10742	138	-12364	408	2.04	2032	-38	-287	2.04	-1	0	-3			2.04	0.655628521	0.008422709	-0.754625864	0.024901921	16384.27807
2.05	10742	138	-12364	408	2.05	2024	-40	-283	2.05	-3	0	2			2.05	0.655628521	0.008422709	-0.754625864	0.024901921	16384.27807
2.06	10742	138	-12364	408	2.06	2013	-35	-288	2.06	2	2	-2			2.06	0.655628521	0.008422709	-0.754625864	0.024901921	16384.27807
2.07	10742	139	-12364	407	2.07	2023	-42	-283	2.07	-3	-1	0			2.07	0.655629178	0.008483751	-0.75462662	0.024840912	16384.26166
2.08	10742	139	-12364	407	2.08	2028	-36	-282	2.08	3	1	0			2.08	0.655629178	0.008483751	-0.75462662	0.024840912	16384.26166
2.09	10742	139	-12364	407	2.09	2018	-36	-290	2.09	-2	-1	-2			2.09	0.655629178	0.008483751	-0.75462662	0.024840912	16384.26166
2.1	10742	139	-12364	407	2.1	2016	-41	-292	2.1	0	-1	3			2.1	0.655629178	0.008483751	-0.75462662	0.024840912	16384.26166
2.11	10742	140	-12364	406	2.11	2010	-36	-291	2.11	0	0	-3			2.11	0.65562983	0.008544794	-0.754627371	0.024779902	16384.24536
2.12	10742	140	-12364	406	2.12	2023	-36	-282	2.12	-2	0	-3			2.12	0.65562983	0.008544794	-0.754627371	0.024779902	16384.24536
2.13	10742	140	-12364	406	2.13	2020	-35	-285	2.13	3	1	2			2.13	0.65562983	0.008544794	-0.754627371	0.024779902	16384.24536
2.14	10742	141	-12364	405	2.14	2021	-31	-281	2.14	-2	-2	-4			2.14	0.655630477	0.008605837	-0.754628116	0.024718893	16384.22919
2.15	10742	141	-12364	405	2.15	2021	-33	-281	2.15	0	0	4			2.15	0.655630477	0.008605837	-0.754628116	0.024718893	16384.22919
2.16	10742	141	-12364	404	2.16	2005	-34	-283	2.16	-2	-2	-2			2.16	0.655631465	0.00860585	-0.754629253	0.024657895	16384.2045
2.17	10742	141	-12364	404	2.17	2016	-38	-295	2.17	-2	-1	-2			2.17	0.655631465	0.00860585	-0.754629253	0.024657895	16384.2045
2.18	10742	142	-12364	404	2.18	2023	-41	-273	2.18	3	1	3			2.18	0.65563112	0.008666879	-0.754628855	0.024657882	16384.21313
2.19	10742	142	-12364	404	2.19	2024	-38	-288	2.19	-3	-1	-6			2.19	0.65563112	0.008666879	-0.754628855	0.024657882	16384.21313
2.2	10742	142	-12364	403	2.2	2011	-26	-284	2.2	-1	1	3			2.2	0.655632105	0.008666892	-0.754629989	0.024596885	16384.18851
2.21	10742	143	-12364	403	2.21	2016	-27	-275	2.21	0	0	1			2.21	0.655631757	0.008727922	-0.754629589	0.024596872	16384.1972
2.22	10742	143	-12364	402	2.22	2018	-32	-277	2.22	-3	-2	-4			2.22	0.65563274	0.008727935	-0.75463072	0.024535874	16384.17264
2.23	10742	143	-12364	402	2.23	2025	-34	-292	2.23	2	1	3			2.23	0.65563274	0.008727935	-0.75463072	0.024535874	16384.17264
2.24	10742	144	-12364	402	2.24	2018	-41	-289	2.24	-1	-2	-3			2.24	0.65563239	0.008788965	-0.754630317	0.024535861	16384.1814
2.25	10742	144	-12364	401	2.25	2019	-31	-295	2.25	-2	0	1			2.25	0.65563337	0.008788978	-0.754631446	0.024474863	16384.15689
2.26	10742	144	-12364	401	2.26	2024	-30	-282	2.26	0	1	1			2.26	0.65563337	0.008788978	-0.754631446	0.024474863	16384.15689
2.27	10742	144	-12364	401	2.27	2020	-41	-286	2.27	-2	-1	-6			2.27	0.65563337	0.008788978	-0.754631446	0.024474863	16384.15689
2.28	10742	145	-12364	400	2.28	2017	-23	-274	2.28	1	0	4			2.28	0.655633995	0.008850021	-0.754632165	0.024413852	16384.14127
2.29	10742	145	-12364	400	2.29	2021	-29	-294	2.29	0	-1	-3			2.29	0.655633995	0.008850021	-0.754632165	0.024413852	16384.14127
2.3	10742	145	-12364	400	2.3	2020	-38	-291	2.3	-1	-1	2			2.3	0.655633995	0.008850021	-0.754632165	0.024413852	16384.14127
2.31	10742	146	-12364	399	2.31	2017	-45	-295	2.31	1	1	2			2.31	0.655634616	0.008911064	-0.754632879	0.02435284	16384.12576
2.32	10742	146	-12364	399	2.32	2021	-38	-294	2.32	-2	-1	-5			2.32	0.655634616	0.008911064	-0.754632879	0.02435284	16384.12576
2.33	10741	146	-12365	399	2.33	2015	-34	-302	2.33	0	-1	3			2.33	0.655569618	0.008911011	-0.754689351	0.024352693	16384.22482
2.34	10741	146	-12365	398	2.34	2015	-35	-288	2.34	-1	1	-3			2.34	0.655570591	0.008911024	-0.754690472	0.024291695	16384.2005
2.35	10741	147	-12364	398	2.35	2015	-25	-275	2.35	0	-1	-2			2.35	0.655600431	0.008972467	-0.754663786	0.024292801	16383.45476
2.36	10741	147	-12365	398	2.36	2011	-34	-299	2.36	-8	13	4			2.36	0.655570233	0.008972053	-0.75469006	0.024291682	16384.20944
2.37	10741	147	-12365	398	2.37	2018	-44	-274	2.37	1	-10	1			2.37	0.655570233	0.008972053	-0.75469006	0.024291682	16384.20944
2.38	10741	148	-12365	397	2.38	2010	-28	-297	2.38	5	-5	-11			2.38	0.655570843	0.009033096	-0.754690762	0.02423067	16384.19418
2.39	10741	148	-12365	397	2.39	2016	-35	-287	2.39	-8	9	10			2.39	0.655570843	0.009033096	-0.754690762	0.02423067	16384.19418
2.4	10739	151	-12367	400	2.4	2025	-55	-303	2.4	24	-7	-5			2.4	0.65543682	0.009216031	-0.754799065	0.024413328	16384.493
2.41	10740	158	-12365	392	2.41	2013	-28	-278	2.41	-5	5	-50			2.41	0.655537119	0.009643842	-0.754722204	0.023926494	16383.51162
2.42	10740	163	-12365	395	2.42	2012	-19	-316	2.42	35	16	6			2.42	0.655532276	0.009948954	-0.754716628	0.024109427	16383.63266
2.43	10747	159	-12359	405	2.43	2019	-35	-284	2.43	28	53	59			2.43	0.655948807	0.009704649	-0.754338077	0.024719388	16383.90051
2.44	10756	157	-12351	412	2.44	2013	-29	-267	2.44	23	60	44			2.44	0.656496985	0.009582561	-0.753848481	0.025146593	16383.92902
2.45	10766	158	-12342	418	2.45	2023	-80	-220	2.45	24	49	3			2.45	0.657109447	0.009643627	-0.753301578	0.025512888	16383.87646
2.46	10751	175	-12355	416	2.46	2020	15	-369	2.46	64	-69	-40			2.46	0.656191103	0.010681187	-0.754091812	0.025390708	16383.94662
2.47	10770	158	-12338	430	2.47	2001	22	-286	2.47	-2	153	161			2.47	0.657356528	0.009643671	-0.753060802	0.026245432	16383.80322
2.48	10820	129	-12295	436	2.48	2018	-92	-196	2.48	-81	342	116			2.48	0.660387222	0.007873378	-0.750412282	0.026610797	16384.32672
2.49	10811	144	-12303	431	2.49	2015	-13	-224	2.49	40	-92	-54			2.49	0.659835624	0.008788857	-0.750897945	0.026305536	16384.38363
2.5	10804	129	-12310	400	2.5	2022	-20	-329	2.5	-188	-17	-33			2.5	0.659419282	0.007873481	-0.751337594	0.024413894	16384.11295
2.51	10813	87	-12304	361	2.51	2016	-43	-274	2.51	-314	67	36			2.51	0.659958616	0.005309942	-0.750960031	0.022033206	16384.36068
2.52	10817	73	-12301	344	2.52	2015	-34	-253	2.52	-125	26	5			2.52	0.66020462	0.004455481	-0.750779055	0.020995691	16384.3143
2.53	10817	62	-12300	346	2.53	2010	-10	-287	2.53	-32	20	78			2.53	0.660235003	0.003784281	-0.750752569	0.021118731	16383.56033
2.54	10821	53	-12297	341	2.54	2025	17	-245	2.54	-45	24	61			2.54	0.66046895	0.0032349	-0.750557867	0.020813225	16383.81335
2.55	10816	63	-12302	306	2.55	2013	77	-269	2.55	-103	-40	-108			2.55	0.660171979	0.003845306	-0.750872382	0.018677203	16383.60965
2.56	10814	46	-12305	266	2.56	2022	23	-262	2.56	-225	-18	-37			2.56	0.66004274	0.002807654	-0.751047339	0.016235562	16383.7875
2.57	10812	-5	-12308	192	2.57	2024	-13	-271	2.57	-502	-14	-48			2.57	0.659927301	-0.000305183	-0.751237997	0.01171902	16383.62283
2.58	10809	-54	-12312	127	2.58	2011	-100	-273	2.58	-458	-15	-72			2.58	0.659724809	-0.003295877	-0.751460065	0.007751416	16384.10419
2.59	10809	-104	-12312	79	2.59	2020	-94	-287	2.59	-392	11	3			2.59	0.659727252	-0.006347639	-0.751462848	0.004821765	16384.04352
2.6	10809	-155	-12312	30	2.6	2020	-75	-297	2.6	-394	22	7			2.6	0.659717583	-0.009460285	-0.751451835	0.001831023	16384.28363
2.61	10817	-187	-12305	2	2.61	2020	-139	-236	2.61	-245	45	-28			2.61	0.660192653	-0.011413148	-0.751009578	0.000122066	16384.61129
2.62	10819	-205	-12302	-4	2.62	2019	-125	-260	2.62	-97	20	4			2.62	0.660343599	-0.012512287	-0.750859317	-0.000244142	16383.89471
2.63	10819	-227	-12302	-34	2.63	2014	-2	-265	2.63	-210	5	0			2.63	0.660330507	-0.013854795	-0.750844431	-0.002075168	16384.21954
2.64	10813	-264	-12306	-73	2.64	2029	16	-295	2.64	-297	-19	30			2.64	0.659975389	-0.016113336	-0.751101187	-0.004455582	16383.94427
2.65	10817	-284	-12301	-111	2.65	2020	-14	-290	2.65	-233	51	-44			2.65	0.66024236	-0.017334643	-0.750821972	-0.00677516	16383.37777
2.66	10815	-317	-12302	-149	2.66	2020	-78	-253	2.66	-285	-16	-35			2.66	0.660106695	-0.019348481	-0.750867551	-0.009094396	16383.71505
2.67	10811	-364	-12304	-195	2.67	2017	-78	-193	2.67	-373	-58	-4			2.67	0.659849597	-0.022216747	-0.750974881	-0.011901829	16384.03668
2.68	10799	-402	-12313	-229	2.68	2025	-92	-218	2.68	-288	-112	-2			2.68	0.659110109	-0.024535815	-0.751516138	-0.01397687	16384.21237
2.69	10789	-444	-12319	-275	2.69	2013	-71	-285	2.69	-357	-53	-21			2.69	0.658511261	-0.027099731	-0.751895469	-0.016784743	16383.92636
2.7	10780	-501	-12323	-338	2.7	2027	-34	-269	2.7	-475	-50	-3			2.7	0.657965703	-0.030578926	-0.752143911	-0.020630093	16383.8327
2.71	10776	-550	-12323	-385	2.71	2023	-33	-267	2.71	-380	-16	26			2.71	0.657722471	-0.033569725	-0.752144953	-0.023498808	16383.81
2.72	10778	-594	-12318	-435	2.72	2018	-32	-264	2.72	-376	27	-8			2.72	0.657830772	-0.036254544	-0.751824035	-0.026550045	16384.15298
2.73	10769	-669	-12319	-508	2.73	2008	-70	-278	2.73	-591	-40	13			2.73	0.657288466	-0.040832573	-0.751893083	-0.0310059	16383.97836
2.74	10752	-755	-12326	-581	2.74	2018	-136	-216	2.74	-634	-126	21			2.74	0.656240331	-0.046080864	-0.752308252	-0.035460903	16384.24139
2.75	10728	-731	-12349	-569	2.75	2021	-82	-228	2.75	129	-220	-103			2.75	0.65477241	-0.044615831	-0.753708473	-0.034728328	16384.31894
2.76	10750	-731	-12329	-579	2.76	2009	50	-302	2.76	-37	183	5			2.76	0.656126846	-0.044616626	-0.752501198	-0.035339297	16384.02707
2.77	10758	-744	-12322	-546	2.77	2034	-147	-164	2.77	84	-16	112			2.77	0.656637684	-0.045411641	-0.75209979	-0.033326285	16383.46422
2.78	10739	-725	-12340	-557	2.78	2017	-17	-381	2.78	24	-88	-134			2.78	0.655453932	-0.044250312	-0.753170827	-0.033996447	16384.06528
2.79	10753	-741	-12326	-565	2.79	2005	19	-254	2.79	-94	99	63			2.79	0.656323095	-0.045227882	-0.75233316	-0.034485497	16383.69894
2.8	10745	-743	-12335	-542	2.8	2035	-113	-288	2.8	86	-73	38			2.8	0.655801247	-0.045347634	-0.752843963	-0.03307997	16384.53731
2.81	10748	-735	-12331	-568	2.81	2014	13	-270	2.81	-81	29	-116			2.81	0.6560053	-0.044860802	-0.75262387	-0.034667939	16384.01398
2.82	10749	-738	-12331	-546	2.82	2011	-28	-278	2.82	82	-4	92			2.82	0.656064614	-0.045043789	-0.752621896	-0.033325079	16384.05695
2.83	10750	-745	-12330	-548	2.83	2023	-88	-280	2.83	-42	9	-14			2.83	0.656114153	-0.045470237	-0.752547675	-0.033446563	16384.34402
2.84	10747	-739	-12332	-560	2.84	2006	17	-265	2.84	-27	-23	-54			2.84	0.655944216	-0.045104939	-0.752684849	-0.034179656	16384.0152
2.85	10747	-746	-12333	-546	2.85	2025	-41	-324	2.85	31	15	68			2.85	0.655920299	-0.045530524	-0.752718438	-0.033323949	16384.6126
2.86	10753	-746	-12327	-555	2.86	2021	-65	-227	2.86	-38	20	-58			2.86	0.65629756	-0.045531292	-0.752364924	-0.033873816	16384.33639
2.87	10744	-734	-12336	-540	2.87	2032	-59	-316	2.87	99	-53	-24			2.87	0.655755206	-0.04479936	-0.75292221	-0.032958657	16384.16272
2.88	10792	-666	-12302	-457	2.88	2042	-46	-335	2.88	606	353	24			2.88	0.658662678	-0.040647641	-0.750821744	-0.02789185	16384.71461
2.89	10748	-702	-12337	-463	2.89	2052	-3	-431	2.89	-160	-238	129			2.89	0.656014669	-0.042847255	-0.753000835	-0.028259657	16383.77997
2.9	10781	-663	-12311	-437	2.9	2004	229	-67	2.9	270	122	83			2.9	0.658037469	-0.040467382	-0.751423734	-0.026673071	16383.56555
2.91	10803	-670	-12291	-465	2.91	2025	39	-229	2.91	-136	155	-32			2.91	0.659358913	-0.040893314	-0.750178691	-0.028381181	16384.0964
2.92	10804	-689	-12289	-470	2.92	2019	-34	-328	2.92	-90	40	54			2.92	0.659416333	-0.042052745	-0.75005251	-0.028686197	16384.18622
2.93	10813	-717	-12278	-500	2.93	2013	-92	-278	2.93	-234	90	-22			2.93	0.659974514	-0.043762298	-0.749391203	-0.030517641	16383.966
2.94	10814	-764	-12273	-535	2.94	2018	-123	-319	2.94	-331	56	14			2.94	0.660029766	-0.046630548	-0.749079464	-0.03265359	16384.10956
2.95	10820	-826	-12260	-601	2.95	2011	-87	-329	2.95	-508	123	-15			2.95	0.660415126	-0.050416164	-0.748307713	-0.036682947	16383.63443
2.96	10543	-2869	-11936	-2565	2.96	2015	-2	-249	2.96	-204	6	4			2.96	0.643496199	-0.175110556	-0.728518509	-0.156555795	16383.93515
2.97	10534	-2898	-11929	-2601	2.97	2022	-5	-253	2.97	-268	0	-21			2.97	0.642951107	-0.176881746	-0.728096047	-0.158754113	16383.82745
2.98	10528	-2935	-11917	-2638	2.98	2013	-30	-236	2.98	-305	16	4			2.98	0.642588316	-0.179141025	-0.727367492	-0.161013296	16383.74017
2.99	10525	-2974	-11903	-2671	2.99	2019	-58	-248	2.99	-293	38	17			2.99	0.642394427	-0.181518387	-0.726500795	-0.163024752	16384.01511
3	10521	-3004	-11893	-2701	3	2016	-48	-260	3	-248	26	-7			3	0.642128332	-0.183343172	-0.725865627	-0.164850169	16384.57528
3.01	10514	-3038	-11883	-2733	3.01	2015	-36	-259	3.01	-272	18	4			3.01	0.641707901	-0.185420259	-0.725262981	-0.166804993	16384.40167
3.02	10514	-3064	-11870	-2759	3.02	2018	-27	-239	3.02	-213	45	3			3.02	0.64171668	-0.187009693	-0.724479455	-0.168394172	16384.17752
3.03	10512	-3083	-11861	-2784	3.03	2025	3	-248	3.03	-184	37	-8			3.03	0.641594925	-0.18816944	-0.723930499	-0.169920117	16384.16949
3.04	10505	-3115	-11852	-2815	3.04	2014	-31	-235	3.04	-257	-1	-2			3.04	0.641154107	-0.190118519	-0.723365871	-0.171808549	16384.51644
3.05	10496	-3157	-11840	-2852	3.05	2019	-49	-219	3.05	-326	-5	7			3.05	0.640605058	-0.19268199	-0.722633754	-0.174066847	16384.51003
3.06	10483	-3197	-11831	-2889	3.06	2018	-28	-247	3.06	-318	-20	5			3.06	0.639834494	-0.195130294	-0.722110264	-0.17633138	16383.92444
3.07	10476	-3229	-11820	-2925	3.07	2018	33	-268	3.07	-279	31	19			3.07	0.639397644	-0.197080469	-0.721428041	-0.178525975	16384.17047
3.08	10476	-3268	-11801	-2960	3.08	2014	-58	-223	3.08	-304	60	16			3.08	0.639385069	-0.199456893	-0.720254219	-0.18065863	16384.4927
3.09	10468	-3315	-11784	-3003	3.09	2015	-61	-223	3.09	-374	26	5			3.09	0.6389	-0.202326471	-0.719220252	-0.18328398	16384.4107
3.1	10458	-3363	-11767	-3048	3.1	2017	-48	-238	3.1	-384	19	9			3.1	0.638309623	-0.205262504	-0.718205138	-0.18603631	16383.89838
3.11	10453	-3403	-11751	-3086	3.11	2018	-65	-235	3.11	-322	41	-1			3.11	0.637977246	-0.20769507	-0.717197993	-0.188347631	16384.59688
3.12	10447	-3438	-11736	-3123	3.12	2011	-24	-235	3.12	-299	38	2			3.12	0.637621187	-0.209834559	-0.716293888	-0.19060888	16384.33636
3.13	10441	-3468	-11723	-3157	3.13	2015	-4	-235	3.13	-267	30	-4			3.13	0.637266373	-0.211669359	-0.715513235	-0.192687476	16384.04355
3.14	10427	-3506	-11714	-3196	3.14	2017	-41	-229	3.14	-322	-21	-21			3.14	0.636400392	-0.213984825	-0.714951011	-0.195064319	16384.33938
3.15	10412	-3550	-11702	-3240	3.15	2020	-31	-209	3.15	-366	-22	-8			3.15	0.635484799	-0.216670288	-0.714218509	-0.197749784	16384.34155
3.16	10397	-3590	-11691	-3285	3.16	2012	0	-227	3.16	-355	-19	-10			3.16	0.634557747	-0.219107657	-0.713534156	-0.200492661	16384.63961
3.17	10378	-3632	-11681	-3332	3.17	2019	2	-273	3.17	-373	-8	-21			3.17	0.633414785	-0.221676864	-0.712942581	-0.203366551	16384.20865
3.18	10368	-3686	-11661	-3375	3.18	2028	-94	-197	3.18	-406	1	12			3.18	0.632793512	-0.224968835	-0.711709601	-0.205987471	16384.49163
3.19	10353	-3736	-11646	-3415	3.19	2011	-79	-250	3.19	-380	-4	10			3.19	0.631898868	-0.228028028	-0.710817561	-0.208435684	16383.95087
3.2	10346	-3775	-11629	-3453	3.2	2019	-26	-219	3.2	-319	29	15			3.2	0.631455924	-0.230402679	-0.709762318	-0.210749788	16384.35812
3.21	10332	-3811	-11616	-3498	3.21	2020	29	-266	3.21	-336	25	-13			3.21	0.630608247	-0.232602403	-0.708976519	-0.213498611	16384.18155
3.22	10317	-3857	-11598	-3550	3.22	2019	2	-245	3.22	-412	23	-8			3.22	0.629702538	-0.235413656	-0.707888925	-0.216675779	16383.92633
3.23	10300	-3914	-11578	-3603	3.23	2021	-82	-212	3.23	-464	-9	-14			3.23	0.628655513	-0.238889095	-0.706657625	-0.219907361	16384.1719
3.24	10277	-3983	-11556	-3665	3.24	2011	-80	-209	3.24	-554	-24	2			3.24	0.627236193	-0.243094459	-0.705297407	-0.223685964	16384.57747
3.25	10264	-4034	-11535	-3711	3.25	2025	-31	-220	3.25	-409	15	21			3.25	0.626447176	-0.246208876	-0.704020671	-0.226495077	16384.46209
3.26	10250	-4075	-11517	-3759	3.26	2015	-5	-243	3.26	-377	31	-11			3.26	0.625605645	-0.248716391	-0.702936606	-0.229429426	16384.12326
3.27	10237	-4120	-11500	-3798	3.27	2022	-80	-218	3.27	-358	-1	-7			3.27	0.624805353	-0.251460199	-0.701891332	-0.231807242	16384.30264
3.28	10221	-4173	-11480	-3843	3.28	2018	-57	-215	3.28	-415	-11	10			3.28	0.623832938	-0.254696688	-0.700675289	-0.234555326	16384.19418
3.29	10207	-4215	-11461	-3891	3.29	2016	-3	-225	3.29	-381	28	-5			3.29	0.622976534	-0.257259341	-0.699513476	-0.237484245	16384.24475
3.3	10190	-4259	-11442	-3942	3.3	2022	-13	-244	3.3	-408	19	-23			3.3	0.621950034	-0.25994948	-0.69836627	-0.240601279	16383.95279
3.31	10169	-4320	-11419	-3999	3.31	2013	-72	-221	3.31	-502	-1	-13			3.31	0.62064215	-0.263661529	-0.696933102	-0.244070013	16384.6429
3.32	10155	-4374	-11395	-4043	3.32	2019	-94	-220	3.32	-422	16	10			3.32	0.61979779	-0.266961648	-0.695479647	-0.246759475	16384.37594
3.33	10146	-4415	-11373	-4082	3.33	2027	-41	-212	3.33	-341	34	8			3.33	0.619255846	-0.269467234	-0.694145155	-0.249142752	16384.18121
3.34	10131	-4447	-11360	-4119	3.34	2017	-3	-235	3.34	-297	7	-21			3.34	0.618354914	-0.27142674	-0.69336806	-0.251406958	16383.79477
3.35	10121	-4484	-11341	-4158	3.35	2026	-21	-219	3.35	-324	33	1			3.35	0.61772222	-0.273675174	-0.692183351	-0.253778183	16384.38714
3.36	10101	-4528	-11325	-4204	3.36	2013	-40	-207	3.36	-385	-21	-32			3.36	0.616485374	-0.276353408	-0.691188681	-0.256579003	16384.81694
3.37	10087	-4579	-11300	-4247	3.37	2015	-76	-165	3.37	-407	-6	9			3.37	0.615654324	-0.279476668	-0.689689091	-0.259213236	16384.19418
3.38	10071	-4626	-11281	-4286	3.38	2023	-54	-218	3.38	-370	-4	10			3.38	0.614661912	-0.282338	-0.68851167	-0.261586829	16384.61699
3.39	10060	-4659	-11265	-4316	3.39	2011	-26	-218	3.39	-276	15	3			3.39	0.614010806	-0.284361466	-0.687557826	-0.263426505	16384.07648
3.4	10056	-4680	-11253	-4335	3.4	2018	-33	-208	3.4	-173	18	0			3.4	0.613755454	-0.28563798	-0.68681286	-0.264581334	16384.37579
3.41	10046	-4708	-11240	-4362	3.41	2014	-47	-208	3.41	-239	2	-22			3.41	0.613140258	-0.287344648	-0.686013986	-0.266227136	16384.50561
3.42	10033	-4743	-11225	-4391	3.42	2018	-55	-213	3.42	-279	-8	-4			3.42	0.612362086	-0.289488027	-0.685115561	-0.26800378	16384.09729
3.43	10022	-4773	-11211	-4418	3.43	2021	-37	-229	3.43	-250	12	-6			3.43	0.611703677	-0.291325249	-0.684275586	-0.269657438	16383.74981
3.44	10011	-4803	-11198	-4445	3.44	2012	-43	-214	3.44	-249	0	-9			3.44	0.611015321	-0.293148195	-0.683463146	-0.271297882	16384.20456
3.45	10000	-4830	-11185	-4474	3.45	2023	15	-216	3.45	-247	9	2			3.45	0.610335255	-0.294791928	-0.682659982	-0.273063993	16384.43777
3.46	9990	-4853	-11172	-4502	3.46	2015	6	-229	3.46	-217	23	-13			3.46	0.609743663	-0.296204804	-0.681887508	-0.274781378	16383.93411
3.47	9978	-4891	-11155	-4531	3.47	2007	-82	-204	3.47	-294	-4	-7			3.47	0.608996431	-0.298516891	-0.680833352	-0.276544681	16384.33249
3.48	9967	-4930	-11138	-4554	3.48	2030	-129	-196	3.48	-276	-16	1			3.48	0.608332311	-0.300900802	-0.679803881	-0.277951775	16384.13711
3.49	9950	-4966	-11126	-4583	3.49	2019	-37	-226	3.49	-281	-26	-2			3.49	0.607277222	-0.303089315	-0.679051897	-0.279713719	16384.60927
3.5	9940	-4997	-11111	-4609	3.5	2019	-1	-226	3.5	-249	14	27			3.5	0.606649504	-0.304972593	-0.678116966	-0.281292512	16385.07891
3.51	9935	-5017	-11096	-4631	3.51	2021	-33	-187	3.51	-185	26	-12			3.51	0.606377009	-0.306209709	-0.677237976	-0.282650421	16384.19638
3.52	9925	-5051	-11074	-4668	3.52	2017	6	-235	3.52	-313	56	11			3.52	0.605766626	-0.308284859	-0.675895175	-0.284908676	16384.19745
3.53	9910	-5077	-11065	-4694	3.53	2017	-23	-229	3.53	-227	-14	-20			3.53	0.604839884	-0.309866003	-0.675333332	-0.286490254	16384.50152
3.54	9899	-5114	-11042	-4732	3.54	2013	-43	-205	3.54	-332	40	-6			3.54	0.604158509	-0.312119064	-0.673918401	-0.288804734	16384.77296
3.55	9880	-5161	-11019	-4774	3.55	2017	-39	-216	3.55	-391	9	10			3.55	0.603000049	-0.314988183	-0.672515945	-0.291368647	16384.74162
3.56	9868	-5194	-11003	-4801	3.56	2019	-77	-184	3.56	-264	-14	-14			3.56	0.602255421	-0.31699581	-0.671525779	-0.293010567	16385.07461
3.57	9851	-5231	-10985	-4834	3.57	2016	-48	-215	3.57	-314	-4	-7			3.57	0.601248492	-0.319270212	-0.670461342	-0.295039611	16384.24069
3.58	9828	-5274	-10965	-4880	3.58	2018	18	-229	3.58	-390	5	1			3.58	0.599836948	-0.321890523	-0.669232004	-0.297843336	16384.45254
3.59	9804	-5319	-10941	-4932	3.59	2014	9	-221	3.59	-430	13	-14			3.59	0.598383293	-0.324643078	-0.667779642	-0.301022685	16384.14728
3.6	9786	-5371	-10912	-4975	3.6	2021	-99	-169	3.6	-426	-2	4			3.6	0.59728965	-0.327819611	-0.666015191	-0.303649704	16384.01068
3.61	9768	-5417	-10891	-5008	3.61	2014	-114	-194	3.61	-351	-23	-5			3.61	0.596173415	-0.330617464	-0.664713827	-0.305654838	16384.49444
3.62	9746	-5454	-10876	-5044	3.62	2018	13	-229	3.62	-326	-16	-1			3.62	0.594821502	-0.332870559	-0.663788083	-0.307847287	16384.7473
3.63	9725	-5490	-10853	-5093	3.63	2017	65	-212	3.63	-377	29	0			3.63	0.593559678	-0.335078934	-0.662406498	-0.310848272	16384.19919
3.64	9707	-5532	-10829	-5133	3.64	2011	-63	-209	3.64	-371	13	-14			3.64	0.592459051	-0.337641235	-0.660939431	-0.313288586	16384.25473
3.65	9695	-5585	-10795	-5170	3.65	2019	-140	-164	3.65	-404	25	28			3.65	0.591724026	-0.340874542	-0.658861357	-0.315545458	16384.32711
3.66	9681	-5620	-10777	-5196	3.66	2022	-65	-200	3.66	-279	-10	2			3.66	0.590867205	-0.343009368	-0.657760136	-0.317131081	16384.39215
3.67	9666	-5646	-10766	-5219	3.67	2020	-25	-216	3.67	-217	-16	-15			3.67	0.589945895	-0.344592854	-0.657082299	-0.318531722	16384.55337
3.68	9642	-5683	-10746	-5263	3.68	2018	13	-217	3.68	-373	3	-23			3.68	0.588495625	-0.346859639	-0.655877825	-0.321225106	16384.14899
3.69	9622	-5731	-10719	-5303	3.69	2015	-89	-183	3.69	-398	0	2			3.69	0.587268723	-0.349785601	-0.654222973	-0.323663068	16384.32223
3.7	9611	-5763	-10703	-5320	3.7	2025	-126	-212	3.7	-228	-14	-10			3.7	0.586603814	-0.351742564	-0.653253628	-0.324704223	16384.14169
3.71	9597	-5788	-10692	-5340	3.71	2018	-39	-200	3.71	-203	-23	-14			3.71	0.585751819	-0.353269931	-0.652585021	-0.325926301	16384.07205
3.72	9579	-5825	-10667	-5383	3.72	2005	-2	-220	3.72	-364	40	-1			3.72	0.584640529	-0.355520522	-0.651045049	-0.328543686	16384.42687
3.73	9578	-5845	-10650	-5396	3.73	2020	-76	-170	3.73	-149	23	5			3.73	0.584588227	-0.356746522	-0.650017187	-0.329342041	16384.18216
3.74	9570	-5862	-10644	-5406	3.74	2014	-37	-205	3.74	-123	-19	-4			3.74	0.584071568	-0.357766722	-0.649619411	-0.329936353	16384.97836
3.75	9559	-5880	-10638	-5416	3.75	2017	-35	-213	3.75	-133	-31	-6			3.75	0.583420361	-0.358877678	-0.649275636	-0.330558079	16384.41275
3.76	9548	-5903	-10629	-5428	3.76	2016	-51	-213	3.76	-162	-24	2			3.76	0.582749472	-0.360281748	-0.648726868	-0.331290756	16384.39923
3.77	9534	-5928	-10619	-5446	3.77	2019	-38	-215	3.77	-195	-21	-3			3.77	0.581882127	-0.361799585	-0.648102192	-0.332382008	16384.76173
3.78	9524	-5952	-10605	-5463	3.78	2017	-35	-212	3.78	-192	-1	10			3.78	0.581290363	-0.36327596	-0.647268406	-0.333430203	16384.23858
3.79	9519	-5973	-10586	-5485	3.79	2018	-22	-193	3.79	-198	38	12			3.79	0.580992294	-0.364562136	-0.646116654	-0.334777049	16384.0383
3.8	9511	-5985	-10580	-5497	3.8	2028	-31	-237	3.8	-112	13	-30			3.8	0.580508292	-0.365297248	-0.645755202	-0.335511942	16383.91757
3.81	9497	-6006	-10570	-5519	3.81	2020	-25	-239	3.81	-199	3	-23			3.81	0.579635926	-0.366567692	-0.645124959	-0.336844338	16384.42266
3.82	9472	-6035	-10564	-5543	3.82	2008	-52	-281	3.82	-250	-34	-51			3.82	0.578095391	-0.368328303	-0.644742368	-0.338300544	16384.83915
3.83	9418	-6088	-10571	-5561	3.83	2023	27	-559	3.83	-335	-99	19			3.83	0.574831485	-0.371583572	-0.645205312	-0.339417911	16383.93207
3.84	9333	-6162	-10607	-5557	3.84	2026	-5	-397	3.84	-336	-490	29			3.84	0.569611009	-0.376078757	-0.647365688	-0.339154439	16384.86591
3.85	9293	-6183	-10642	-5532	3.85	2035	-62	15	3.85	3	-505	-37			3.85	0.567190125	-0.377373996	-0.64952516	-0.33764078	16384.27679
3.86	9281	-6215	-10636	-5527	3.86	2063	-134	183	3.86	-131	-345	39			3.86	0.566467333	-0.379333528	-0.649169976	-0.337341337	16383.99863
3.87	9211	-6187	-10687	-5577	3.87	2061	-31	-481	3.87	-150	-148	-539			3.87	0.562193848	-0.377623856	-0.652281582	-0.340392475	16384.02844
3.88	9223	-6218	-10705	-5488	3.88	2065	-19	-548	3.88	281	-122	354			3.88	0.562919942	-0.379511677	-0.65337287	-0.334956591	16384.21258
3.89	9282	-6231	-10634	-5513	3.89	2019	-202	61	3.89	-156	287	117			3.89	0.566506632	-0.380295499	-0.649023004	-0.336473935	16384.62725
3.9	9228	-6220	-10698	-5491	3.9	2039	-64	-555	3.9	116	-283	-256			3.9	0.563224855	-0.379633571	-0.652945329	-0.33513954	16384.22012
3.91	9235	-6229	-10686	-5493	3.91	1995	126	-222	3.91	-37	21	127			3.91	0.563645122	-0.380178177	-0.652204848	-0.335257461	16384.42282
3.92	9278	-6228	-10659	-5472	3.92	2043	-186	-157	3.92	106	131	91			3.92	0.566293803	-0.380133413	-0.650584786	-0.333990051	16383.72159
3.93	9256	-6211	-10684	-5483	3.93	2030	-25	-285	3.93	10	-106	-212			3.93	0.564914316	-0.379071177	-0.65206834	-0.334639714	16384.78569
3.94	9262	-6222	-10668	-5491	3.94	2014	78	-255	3.94	-76	61	97			3.94	0.565286794	-0.379746754	-0.651099062	-0.335131698	16384.60354
3.95	9282	-6231	-10654	-5475	3.95	2033	-110	-231	3.95	35	38	82			3.95	0.566497963	-0.38028968	-0.650233711	-0.334149574	16384.87797
3.96	9256	-6227	-10668	-5495	3.96	2010	-17	-287	3.96	-87	-84	-172			3.96	0.564925772	-0.3800554	-0.651105028	-0.335378902	16384.45342
3.97	9265	-6230	-10663	-5485	3.97	2009	8	-305	3.97	31	35	66			3.97	0.565488128	-0.380247279	-0.650814885	-0.334776296	16384.07516
3.98	9285	-6239	-10648	-5472	3.98	2030	-140	-212	3.98	23	40	67			3.98	0.566686539	-0.380781617	-0.649873804	-0.333969708	16384.71953
3.99	9269	-6233	-10658	-5485	3.99	2015	-6	-261	3.99	-45	-59	-122			3.99	0.565727084	-0.380426897	-0.65050375	-0.334773228	16384.22531
4	9278	-6239	-10650	-5478	4	2011	-6	-292	4	13	40	70			4	0.566282141	-0.380796969	-0.650022074	-0.334349382	16384.05899
4.01	9290	-6245	-10640	-5471	4.01	2032	-94	-210	4.01	1	14	32			4.01	0.567005924	-0.381157373	-0.649401834	-0.333917052	16384.30853
4.02	9278	-6237	-10652	-5477	4.02	2014	-6	-292	4.02	0	-47	-101			4.02	0.566275077	-0.38067015	-0.650136034	-0.334284177	16384.26336
4.03	9289	-6245	-10642	-5468	4.03	2024	-40	-282	4.03	10	40	77			4.03	0.566954217	-0.381163643	-0.649534587	-0.33373944	16384.039
4.04	9284	-6254	-10638	-5474	4.04	2026	-108	-215	4.04	-78	-42	-46			4.04	0.566648875	-0.381712846	-0.649290255	-0.334105552	16384.04382
4.05	9273	-6243	-10650	-5483	4.05	1996	65	-288	4.05	3	-34	-86			4.05	0.565964339	-0.381032608	-0.650007572	-0.334647091	16384.42452
4.06	9290	-6261	-10638	-5457	4.06	2013	-43	-348	4.06	44	55	184			4.06	0.567001121	-0.38213068	-0.649274266	-0.333059754	16384.44732
4.07	9291	-6246	-10649	-5452	4.07	2044	-114	-188	4.07	81	-68	-122			4.07	0.567050972	-0.38120766	-0.649932817	-0.332748025	16384.77043
4.08	9276	-6232	-10652	-5487	4.08	1994	81	-298	4.08	-100	53	-162			4.08	0.566142267	-0.380357763	-0.650123698	-0.334888165	16384.57424
4.09	9297	-6257	-10612	-5500	4.09	2013	-40	-260	4.09	-162	182	154			4.09	0.567429742	-0.381887479	-0.647688978	-0.335685015	16384.40728
4.1	9307	-6273	-10587	-5513	4.1	2025	-61	-251	4.1	-129	107	53			4.1	0.568040381	-0.382864222	-0.646163481	-0.336478631	16384.39855
4.11	9319	-6302	-10550	-5530	4.11	2007	6	-241	4.11	-196	134	156			4.11	0.568779302	-0.384638605	-0.643912612	-0.337520071	16384.21084
4.12	9343	-6335	-10507	-5535	4.12	2029	-107	-228	4.12	-159	159	194			4.12	0.570228426	-0.386642093	-0.641270477	-0.337815941	16384.66197
4.13	9340	-6358	-10482	-5560	4.13	2010	-66	-234	4.13	-222	78	23			4.13	0.570057495	-0.388054128	-0.639758315	-0.339349001	16384.31225
4.14	9348	-6376	-10453	-5582	4.14	2020	-45	-220	4.14	-177	119	60			4.14	0.570527994	-0.389140617	-0.637968456	-0.340681137	16384.82264
4.15	9340	-6397	-10434	-5605	4.15	2011	-38	-249	4.15	-206	51	17			4.15	0.570061846	-0.390437434	-0.636833544	-0.342098142	16384.18719
4.16	9301	-6422	-10427	-5655	4.16	2035	123	-338	4.16	-349	-3	-59			4.16	0.567670454	-0.391955667	-0.636393917	-0.345143148	16384.50607
4.17	9212	-6485	-10412	-5755	4.17	2025	256	-410	4.17	-761	-82	-91			4.17	0.562244882	-0.395805261	-0.63548564	-0.351250466	16384.31988
4.18	9127	-6599	-10348	-5874	4.18	2014	-160	-179	4.18	-1105	-101	-86			4.18	0.557069475	-0.402772156	-0.631593616	-0.35852154	16383.95282
4.19	9095	-6710	-10266	-5943	4.19	2013	-378	-81	4.19	-854	-16	88			4.19	0.555096472	-0.409532417	-0.626566288	-0.362719993	16384.53936
4.2	9075	-6758	-10229	-5982	4.2	2016	-148	-170	4.2	-418	-1	13			4.2	0.553886307	-0.412469825	-0.624319894	-0.365107206	16384.22882
4.21	9074	-6791	-10197	-6001	4.21	2025	-16	-275	4.21	-235	86	120			4.21	0.553822165	-0.414481631	-0.622363304	-0.366264802	16384.32077
4.22	9043	-6824	-10174	-6049	4.22	2024	46	-286	4.22	-389	29	-17			4.22	0.551932646	-0.416497664	-0.620962373	-0.369196127	16384.24554
4.23	8980	-6881	-10147	-6124	4.23	2007	99	-331	4.23	-632	-30	-48			4.23	0.548077236	-0.419968759	-0.619302863	-0.373766703	16384.55205
4.24	8947	-6952	-10098	-6172	4.24	1997	-117	-173	4.24	-569	-37	80			4.24	0.546074581	-0.424310996	-0.61632515	-0.376704182	16384.20889
4.25	8927	-7020	-10048	-6206	4.25	2022	-237	-158	4.25	-496	-29	84			4.25	0.544847634	-0.428456412	-0.613266385	-0.378774999	16384.39712
4.26	8913	-7058	-10013	-6239	4.26	2022	-226	-241	4.26	-351	57	-36			4.26	0.543999491	-0.430780703	-0.611137316	-0.38079354	16384.20651
4.27	8880	-7101	-9974	-6299	4.27	2022	-73	-248	4.27	-504	64	-51			4.27	0.541990954	-0.433409658	-0.608763263	-0.384459574	16384.03729
4.28	8832	-7164	-9916	-6387	4.28	2013	-26	-221	4.28	-737	83	-31			4.28	0.53904996	-0.437245688	-0.605210531	-0.389822475	16384.38113
4.29	8784	-7225	-9872	-6452	4.29	2019	6	-210	4.29	-613	-16	15			4.29	0.536124311	-0.440972012	-0.602529508	-0.393792584	16384.25979
4.3	8755	-7266	-9853	-6475	4.3	2019	-24	-216	4.3	-321	-87	35			4.3	0.534346312	-0.443467767	-0.601360847	-0.395190448	16384.50533
4.31	8743	-7298	-9835	-6482	4.31	2024	-150	-183	4.31	-200	-69	26			4.31	0.533621479	-0.445427148	-0.600270759	-0.395623291	16384.27301
4.32	8732	-7319	-9822	-6494	4.32	2014	-90	-245	4.32	-163	-15	-5			4.32	0.532935311	-0.446696466	-0.599460676	-0.396344699	16384.7278
4.33	8714	-7343	-9799	-6526	4.33	2017	-58	-271	4.33	-278	53	-32			4.33	0.53183354	-0.448158559	-0.598053346	-0.39829535	16384.82597
4.34	8683	-7378	-9767	-6574	4.34	2026	20	-230	4.34	-412	27	-3			4.34	0.529962653	-0.450312617	-0.596124062	-0.401240871	16384.1734
4.35	8656	-7413	-9743	-6606	4.35	2014	-26	-232	4.35	-338	-18	5			4.35	0.528311718	-0.452446253	-0.594655853	-0.403191683	16384.26654
4.36	8641	-7445	-9715	-6632	4.36	2022	-111	-207	4.36	-287	11	7			4.36	0.527381113	-0.454386342	-0.592929928	-0.404766988	16384.73543
4.37	8627	-7475	-9684	-6660	4.37	2020	-124	-223	4.37	-298	41	-5			4.37	0.526549553	-0.456237152	-0.591063623	-0.40649357	16384.02301
4.38	8604	-7505	-9655	-6699	4.38	2015	-44	-222	4.38	-343	33	-18			4.38	0.52513278	-0.458056894	-0.589279055	-0.408863842	16384.42758
4.39	8574	-7543	-9625	-6737	4.39	2011	-47	-214	4.39	-385	-10	-9			4.39	0.523312834	-0.4603859	-0.587460465	-0.411191808	16384.08127
4.4	8536	-7588	-9594	-6780	4.4	2019	-36	-239	4.4	-448	-27	-3			4.4	0.520977831	-0.463118531	-0.585550763	-0.413803854	16384.57433
4.41	8499	-7632	-9564	-6820	4.41	2019	-42	-255	4.41	-427	-20	-10			4.41	0.518711258	-0.465796484	-0.583710374	-0.416238472	16384.83814
4.42	4880	-10907	-5787	-9602	4.42	2016	21	-229	4.42	76	112	122			4.42	0.297835272	-0.665674039	-0.353191131	-0.586027516	16384.89615
4.43	4860	-10916	-5789	-9600	4.43	1999	-36	-280	4.43	-85	-84	-90			4.43	0.296622174	-0.666240257	-0.353322173	-0.585920343	16384.47976
4.44	4830	-10897	-5789	-9636	4.44	1989	125	-113	4.44	-143	55	-152			4.44	0.294798119	-0.665096294	-0.353330499	-0.588131403	16384.09369
4.45	4855	-10906	-5772	-9625	4.45	2037	-88	-331	4.45	30	39	110			4.45	0.296307463	-0.665608485	-0.35227326	-0.587427257	16385.00748
4.46	4859	-10904	-5765	-9628	4.46	2020	-84	-173	4.46	-16	-19	-35			4.46	0.296566924	-0.665520836	-0.351864235	-0.587640738	16384.16022
4.47	4856	-10898	-5773	-9632	4.47	2004	21	-235	4.47	17	-7	-70			4.47	0.296378639	-0.665142999	-0.352346351	-0.587874598	16384.44668
4.48	4867	-10910	-5749	-9628	4.48	2027	-82	-319	4.48	-59	34	92			4.48	0.297041663	-0.665856698	-0.350871692	-0.587613958	16384.9069
4.49	4872	-10910	-5751	-9624	4.49	2016	-63	-213	4.49	24	-43	-40			4.49	0.297349765	-0.665863287	-0.350997228	-0.587375644	16384.74476
4.5	4874	-10908	-5759	-9620	4.5	2020	-22	-319	4.5	40	5	-47			4.5	0.297476838	-0.665752431	-0.351491405	-0.5871414	16384.4689
4.51	4897	-10913	-5741	-9614	4.51	2029	-108	-257	4.51	23	31	88			4.51	0.298874242	-0.666043414	-0.350385342	-0.586762703	16384.81782
4.52	4900	-10916	-5741	-9609	4.52	2017	-92	-247	4.52	5	-35	-39			4.52	0.299058027	-0.666228045	-0.35038615	-0.586458894	16384.78007
4.53	4895	-10917	-5735	-9614	4.53	2008	-24	-273	4.53	-55	14	-24			4.53	0.298752801	-0.666288932	-0.35001988	-0.586763927	16384.78364
4.54	4915	-10920	-5725	-9606	4.54	2020	-76	-253	4.54	44	3	66			4.54	0.29997716	-0.666480283	-0.349413884	-0.58628293	16384.58074
4.55	4914	-10918	-5728	-9607	4.55	2020	-61	-240	4.55	0	-8	-65			4.55	0.29991609	-0.666358133	-0.34959694	-0.58634389	16384.58278
4.56	4915	-10918	-5727	-9607	4.56	2007	-33	-286	4.56	-1	-5	1			4.56	0.299978031	-0.666360151	-0.349536965	-0.586345665	16384.53316
4.57	4905	-10913	-5711	-9627	4.57	1973	205	-385	4.57	-108	166	81			4.57	0.299370868	-0.666062036	-0.348564124	-0.587572548	16384.35974
4.58	4989	-10929	-5578	-9645	4.58	2013	-10	-157	4.58	-188	354	775			4.58	0.304482949	-0.667006243	-0.340430124	-0.588642622	16385.15398
4.59	5049	-10960	-5518	-9612	4.59	1975	-271	-53	4.59	17	-114	408			4.59	0.308156509	-0.668923617	-0.336781069	-0.586650895	16384.53139
4.6	4947	-11003	-5445	-9658	4.6	2006	-146	-188	4.6	-788	-67	-123			4.6	0.301924974	-0.671534363	-0.332318877	-0.589446412	16384.86518
4.61	4826	-11045	-5391	-9701	4.61	2012	-184	-69	4.61	-795	-217	-282			4.61	0.294545171	-0.674109285	-0.329028805	-0.592080957	16384.5837
4.62	4734	-11087	-5310	-9743	4.62	1991	-80	-212	4.62	-770	-37	-34			4.62	0.288930195	-0.676672807	-0.3240852	-0.594644463	16384.58037
4.63	4645	-11154	-5180	-9779	4.63	2013	-56	-310	4.63	-944	-14	242			4.63	0.283501158	-0.680768982	-0.316154144	-0.596847756	16384.41278
4.64	4574	-11205	-5076	-9810	4.64	2019	-84	-273	4.64	-757	-3	168			4.64	0.279154048	-0.683848078	-0.309791418	-0.598710365	16385.21825
4.65	4531	-11236	-5018	-9823	4.65	2023	-84	-269	4.65	-439	-37	76			4.65	0.276543157	-0.685773319	-0.306266511	-0.599532869	16384.42279
4.66	4487	-11256	-4964	-9849	4.66	2017	-131	-322	4.66	-428	77	-1			4.66	0.273844677	-0.686961375	-0.302956313	-0.601091203	16385.2007
4.67	4430	-11271	-4897	-9890	4.67	2015	-219	-287	4.67	-552	128	-79			4.67	0.270376882	-0.687904703	-0.298879366	-0.603617914	16384.53692
4.68	4378	-11284	-4831	-9931	4.68	2013	-188	-276	4.68	-526	141	-55			4.68	0.267200265	-0.688690679	-0.294847986	-0.606113713	16384.71428
4.69	4356	-11290	-4782	-9958	4.69	2013	-151	-251	4.69	-309	123	15			4.69	0.265852964	-0.689044988	-0.291852359	-0.607751106	16384.99692
4.7	4344	-11303	-4752	-9962	4.7	2021	-150	-245	4.7	-183	-5	20			4.7	0.265128997	-0.689860278	-0.290030615	-0.608014518	16384.4772
4.71	4323	-11312	-4713	-9980	4.71	2007	-128	-233	4.71	-261	59	12			4.71	0.263841719	-0.690394985	-0.287644233	-0.609100244	16384.82353
4.72	4294	-11327	-4678	-9992	4.72	2020	-127	-244	4.72	-283	4	-9			4.72	0.262071461	-0.691309603	-0.285507753	-0.609831866	16384.844
4.73	4260	-11337	-4638	-10013	4.73	2016	-85	-260	4.73	-322	57	-9			4.73	0.260004474	-0.691941485	-0.283075294	-0.611132582	16384.33343
4.74	4209	-11356	-4580	-10040	4.74	2009	-122	-212	4.74	-472	31	-8			4.74	0.256888857	-0.693093338	-0.279532185	-0.61277361	16384.5176
4.75	4167	-11383	-4529	-10051	4.75	2014	-139	-228	4.75	-402	-51	19			4.75	0.25431665	-0.694717165	-0.276409913	-0.613423722	16385.08529
4.76	4137	-11402	-4490	-10058	4.76	2017	-117	-231	4.76	-293	-34	22			4.76	0.2524985	-0.695911988	-0.274043574	-0.613882018	16384.25577
4.77	4105	-11427	-4450	-10061	4.77	2016	-156	-239	4.77	-308	-75	10			4.77	0.250540861	-0.697425193	-0.271597279	-0.614053984	16384.55294
4.78	4064	-11451	-4405	-10070	4.78	2024	-126	-293	4.78	-369	-22	8			4.78	0.248039961	-0.698894092	-0.268852369	-0.614606891	16384.45672
4.79	4009	-11464	-4340	-10106	4.79	2005	-168	-259	4.79	-520	114	-41			4.79	0.244677747	-0.699672161	-0.264879377	-0.61679055	16384.81654
4.8	3973	-11474	-4286	-10131	4.8	2025	-122	-218	4.8	-387	72	23			4.8	0.242488653	-0.700305766	-0.26159234	-0.618336911	16384.27179
4.81	3944	-11494	-4251	-10135	4.81	2015	-112	-228	4.81	-273	-62	13			4.81	0.240713267	-0.701510722	-0.259450329	-0.61856718	16384.63909
4.82	3909	-11517	-4208	-10141	4.82	2016	-144	-264	4.82	-332	-34	14			4.82	0.238571647	-0.702898352	-0.256820028	-0.618919179	16385.01495
4.83	3873	-11526	-4160	-10163	4.83	2019	-142	-261	4.83	-361	76	-8			4.83	0.236386731	-0.703483981	-0.25390364	-0.620293918	16384.1684
4.84	3824	-11537	-4104	-10193	4.84	2022	-92	-272	4.84	-449	101	-9			4.84	0.233385416	-0.704123313	-0.250474307	-0.62209664	16384.9141
4.85	3758	-11546	-4028	-10238	4.85	2015	-158	-259	4.85	-605	168	-42			4.85	0.229353605	-0.704661184	-0.245831911	-0.624832946	16385.17952
4.86	3705	-11550	-3959	-10279	4.86	2015	-143	-186	4.86	-519	144	-24			4.86	0.226124475	-0.704922454	-0.241626666	-0.627350468	16384.78096
4.87	3679	-11547	-3916	-10308	4.87	2017	-75	-249	4.87	-292	155	16			4.87	0.22453884	-0.704743133	-0.23900356	-0.629123774	16384.69316
4.88	3628	-11562	-3877	-10323	4.88	2035	-40	-274	4.88	-380	18	-32			4.88	0.221434627	-0.705685545	-0.236632318	-0.630063301	16384.06805
4.89	3515	-11609	-3770	-10350	4.89	2014	-36	-168	4.89	-917	-105	49			4.89	0.214528964	-0.70852539	-0.230092232	-0.63168557	16384.73393
4.9	3476	-11629	-3718	-10360	4.9	2011	-159	-237	4.9	-385	-16	7			4.9	0.212144814	-0.709733038	-0.22691439	-0.632284313	16385.03406
4.91	3452	-11629	-3681	-10381	4.91	2018	-98	-238	4.91	-256	106	2			4.91	0.210681818	-0.709738952	-0.224658103	-0.63357125	16384.89753
4.92	3415	-11639	-3638	-10397	4.92	2017	-82	-238	4.92	-338	43	5			4.92	0.208425065	-0.710354123	-0.222035252	-0.634552093	16384.7856
4.93	3363	-11657	-3582	-10413	4.93	2021	-92	-205	4.93	-446	-12	5			4.93	0.205253105	-0.71145865	-0.218619275	-0.635533921	16384.64864
4.94	3304	-11685	-3518	-10422	4.94	2022	-159	-196	4.94	-515	-73	0			4.94	0.201654675	-0.713176416	-0.214715843	-0.636091109	16384.44534
4.95	3257	-11712	-3459	-10427	4.95	2013	-198	-185	4.95	-445	-90	4			4.95	0.198780194	-0.71480308	-0.211108594	-0.636377367	16384.93219
4.96	3213	-11736	-3404	-10431	4.96	2021	-184	-252	4.96	-415	-48	5			4.96	0.196100629	-0.716289133	-0.207758027	-0.636640418	16384.44512
4.97	3169	-11742	-3352	-10456	4.97	2026	-116	-272	4.97	-404	107	-15			4.97	0.193404017	-0.716614062	-0.204572503	-0.638129504	16385.38877
4.98	3133	-11736	-3306	-10487	4.98	2009	-130	-222	4.98	-342	159	-38			4.98	0.19121576	-0.716280931	-0.201774434	-0.640050965	16384.63274
4.99	3095	-11730	-3256	-10521	4.99	2014	-126	-160	4.99	-366	135	-30			4.99	0.188893449	-0.715903118	-0.19871957	-0.642115661	16384.8986
5	3048	-11753	-3205	-10525	5	2013	-111	-168	5	-410	-89	13			5	0.186022854	-0.717298753	-0.19560474	-0.642352538	16385.08355
5.01	3004	-11785	-3154	-10517	5.01	2023	-147	-218	5.01	-389	-146	30			5.01	0.183339436	-0.719259407	-0.192494202	-0.641871123	16384.90909
5.02	2966	-11806	-3105	-10519	5.02	2019	-144	-255	5.02	-357	-42	19			5.02	0.181018904	-0.720535798	-0.189502257	-0.641988485	16385.02908
5.03	2931	-11814	-3059	-10533	5.03	2022	-146	-242	5.03	-339	45	-9			5.03	0.17888489	-0.721032443	-0.18669699	-0.642850408	16384.83833
5.04	2900	-11815	-3015	-10553	5.04	2016	-133	-201	5.04	-311	82	0			5.04	0.176993776	-0.721097058	-0.184012495	-0.644074249	16384.75691
5.05	2870	-11827	-2972	-10559	5.05	2019	-124	-223	5.05	-302	-10	20			5.05	0.175169385	-0.721856557	-0.181394917	-0.644464647	16384.14154
5.06	2847	-11835	-2943	-10566	5.06	2018	-128	-219	5.06	-214	4	-12			5.06	0.173754538	-0.722298898	-0.17961349	-0.644850879	16385.18352
5.07	2824	-11849	-2907	-10566	5.07	2007	-146	-231	5.07	-242	-32	20			5.07	0.172353867	-0.723166065	-0.177419508	-0.644862237	16384.89493
5.08	2795	-11859	-2868	-10573	5.08	2015	-124	-195	5.08	-284	-12	15			5.08	0.170584936	-0.723780593	-0.175040285	-0.645293213	16384.79963
5.09	2769	-11866	-2837	-10580	5.09	2022	-127	-252	5.09	-236	23	-18			5.09	0.16900042	-0.724217764	-0.173150665	-0.645729305	16384.57464
5.1	2738	-11864	-2793	-10602	5.1	2020	-110	-236	5.1	-309	114	11			5.1	0.167108364	-0.724095553	-0.170465179	-0.647071903	16384.5779
5.11	2675	-11876	-2731	-10621	5.11	2010	-66	-207	5.11	-512	23	0			5.11	0.163261883	-0.724821726	-0.166679701	-0.648225964	16384.71858
5.12	2606	-11906	-2658	-10623	5.12	2020	-123	-195	5.12	-577	-113	29			5.12	0.159051186	-0.726655188	-0.162224886	-0.648350249	16384.66249
5.13	2556	-11935	-2600	-10617	5.13	2018	-195	-249	5.13	-444	-110	5			5.13	0.155999294	-0.728423935	-0.158684728	-0.647982984	16384.6895
5.14	2526	-11944	-2559	-10624	5.14	2018	-131	-260	5.14	-289	20	9			5.14	0.154168426	-0.728973746	-0.156182503	-0.648410673	16384.67787
5.15	2483	-11947	-2519	-10640	5.15	2025	-88	-260	5.15	-342	74	-30			5.15	0.151545889	-0.72916582	-0.15374309	-0.649395189	16384.47616
5.16	2412	-11955	-2445	-10665	5.16	2011	-104	-222	5.16	-593	69	-1			5.16	0.147210062	-0.729641911	-0.14922413	-0.650910162	16384.74959
5.17	2336	-11972	-2377	-10678	5.17	2019	-104	-200	5.17	-585	-28	-36			5.17	0.142572804	-0.730685621	-0.145075152	-0.651709076	16384.61147
5.18	2266	-11999	-2301	-10679	5.18	2020	-188	-246	5.18	-595	-82	2			5.18	0.138302845	-0.732345913	-0.140439032	-0.651781149	16384.33395
5.19	2196	-12019	-2235	-10686	5.19	2021	-129	-265	5.19	-551	-28	-29			5.19	0.134025928	-0.733541727	-0.13640617	-0.652186279	16384.88932
5.2	2144	-12021	-2180	-10705	5.2	2032	-114	-264	5.2	-438	88	-16			5.2	0.130855683	-0.733682915	-0.133052887	-0.653362915	16384.46221
5.21	2078	-12023	-2116	-10728	5.21	2015	-64	-252	5.21	-527	101	-12			5.21	0.126830441	-0.733822134	-0.129149766	-0.654781989	16384.07925
5.22	1980	-12041	-2020	-10746	5.22	2020	-135	-233	5.22	-784	9	-19			5.22	0.12084341	-0.734886618	-0.123284691	-0.655850145	16384.84046
5.23	1879	-12073	-1893	-10751	5.23	2008	-374	-198	5.23	-930	-98	-18			5.23	0.114680794	-0.736850042	-0.115535255	-0.656164565	16384.60924
5.24	1817	-12087	-1812	-10761	5.24	2024	-163	-278	5.24	-576	24	40			5.24	0.110891777	-0.737671387	-0.110586626	-0.656745412	16385.34476
5.25	1791	-12083	-1786	-10773	5.25	2025	-110	-218	5.25	-211	58	-39			5.25	0.109310211	-0.737462465	-0.109005045	-0.657509156	16384.5627
5.26	1765	-12094	-1743	-10772	5.26	2013	-165	-194	5.26	-282	-54	21			5.26	0.107723311	-0.738133555	-0.106380584	-0.65744788	16384.56878
5.27	1748	-12104	-1714	-10768	5.27	2010	-142	-260	5.27	-189	-29	10			5.27	0.106686575	-0.738749601	-0.104611436	-0.657208832	16384.44201
5.28	1732	-12110	-1689	-10768	5.28	2012	-160	-241	5.28	-168	-12	-14			5.28	0.105709147	-0.739109567	-0.103084728	-0.657203288	16384.58022
5.29	1717	-12118	-1664	-10766	5.29	2015	-119	-222	5.29	-161	-40	9			5.29	0.104790686	-0.7395769	-0.101556029	-0.657062626	16385.04394
5.3	1700	-12131	-1637	-10758	5.3	2015	-106	-272	5.3	-178	-57	34			5.3	0.103753961	-0.740376057	-0.099908961	-0.656579476	16384.91666
5.31	1677	-12138	-1610	-10758	5.31	2019	-141	-270	5.31	-201	-5	-25			5.31	0.102349365	-0.740797012	-0.098260273	-0.656573921	16385.05529
5.32	1652	-12139	-1574	-10766	5.32	2022	-152	-211	5.32	-253	20	-6			5.32	0.100823843	-0.740859947	-0.096063395	-0.65706386	16385.01318
5.33	1627	-12149	-1544	-10763	5.33	2017	-120	-239	5.33	-223	-45	5			5.33	0.099297545	-0.741466425	-0.094231966	-0.656877367	16385.09796
5.34	1611	-12159	-1516	-10758	5.34	2019	-114	-275	5.34	-176	-32	27			5.34	0.098321416	-0.742079517	-0.092523443	-0.656574673	16385.03653
5.35	1587	-12159	-1487	-10765	5.35	2016	-93	-214	5.35	-214	17	6			5.35	0.096859043	-0.742097731	-0.090755763	-0.657018017	16384.63439
5.36	1548	-12176	-1443	-10758	5.36	2015	-135	-244	5.36	-332	-87	5			5.36	0.094476679	-0.743118889	-0.088068377	-0.656576298	16384.99597
5.37	1522	-12188	-1405	-10752	5.37	2017	-153	-265	5.37	-258	-54	17			5.37	0.092894141	-0.743885537	-0.085753133	-0.656240342	16384.24112
5.38	1509	-12192	-1378	-10754	5.38	2017	-143	-238	5.38	-166	-3	13			5.38	0.092096238	-0.744093657	-0.084101137	-0.656330642	16385.03418
5.39	1500	-12200	-1357	-10748	5.39	2019	-150	-195	5.39	-122	-80	11			5.39	0.091550092	-0.744607413	-0.082822316	-0.655986924	16384.47292
5.4	1488	-12226	-1336	-10723	5.4	2020	-127	-276	5.4	-133	-183	32			5.4	0.090816694	-0.746186093	-0.08153972	-0.654453907	16384.65273
5.41	1476	-12251	-1308	-10700	5.41	2009	-125	-273	5.41	-161	-180	60			5.41	0.090082692	-0.747698548	-0.079829377	-0.653038483	16384.94556
5.42	1445	-12263	-1279	-10693	5.42	2025	-56	-286	5.42	-239	-62	23			5.42	0.088194186	-0.74846042	-0.078062536	-0.652636979	16384.29992
5.43	1391	-12265	-1228	-10705	5.43	2014	-142	-314	5.43	-423	67	-38			5.43	0.084894422	-0.748547869	-0.074946334	-0.653339171	16385.05767
5.44	1348	-12261	-1176	-10720	5.44	2017	-108	-243	5.44	-377	68	29			5.44	0.08227307	-0.748330941	-0.071775319	-0.654278418	16384.46218
5.45	1319	-12276	-1135	-10712	5.45	2015	-142	-259	5.45	-284	-85	32			5.45	0.080499426	-0.749212248	-0.069269787	-0.653760313	16385.20998
5.46	1298	-12290	-1098	-10701	5.46	2014	-220	-356	5.46	-238	-45	3			5.46	0.07922209	-0.750107466	-0.067015297	-0.653124491	16384.319
5.47	1282	-12283	-1075	-10714	5.47	2013	-137	-294	5.47	-157	97	-11			5.47	0.078243343	-0.749659109	-0.065609667	-0.653899511	16384.78056
5.48	1251	-12277	-1044	-10728	5.48	2016	-103	-261	5.48	-250	78	-12			5.48	0.076350118	-0.749280892	-0.063716645	-0.654743456	16385.04348
5.49	1216	-12276	-1005	-10736	5.49	2023	-109	-270	5.49	-297	42	3			5.49	0.074216663	-0.749246509	-0.061338607	-0.655255012	16384.46072
5.5	1187	-12284	-970	-10734	5.5	2033	-144	-281	5.5	-257	-26	0			5.5	0.072444706	-0.749714211	-0.059200813	-0.655114974	16384.91016
5.51	1163	-12283	-937	-10740	5.51	2015	-128	-287	5.51	-226	48	16			5.51	0.070981934	-0.749674199	-0.057188368	-0.655499544	16384.45077
5.52	1127	-12282	-900	-10748	5.52	2018	-142	-273	5.52	-298	41	-23			5.52	0.068785122	-0.749617451	-0.054930443	-0.655991562	16384.35708
5.53	1083	-12290	-849	-10748	5.53	2018	-160	-267	5.53	-380	-25	5			5.53	0.066098386	-0.75009156	-0.05181674	-0.655979177	16384.66643
5.54	1045	-12296	-803	-10749	5.54	2022	-91	-281	5.54	-336	-6	37			5.54	0.0637777	-0.750440764	-0.049008127	-0.656025356	16385.03741
5.55	1003	-12292	-761	-10760	5.55	2013	-155	-319	5.55	-337	96	-33			5.55	0.06121592	-0.750215442	-0.046445977	-0.656713159	16384.62676
5.56	970	-12282	-720	-10777	5.56	2011	-135	-223	5.56	-293	95	3			5.56	0.059202437	-0.74961271	-0.043944077	-0.657757383	16384.46072
5.57	933	-12288	-677	-10776	5.57	2028	-113	-246	5.57	-321	-33	16			5.57	0.056944689	-0.749985357	-0.041319994	-0.657702003	16384.31988
5.58	900	-12300	-635	-10768	5.58	2013	-173	-261	5.58	-301	-74	2			5.58	0.054929841	-0.750707822	-0.038756054	-0.657205027	16384.53689
5.59	891	-12315	-608	-10754	5.59	2010	-193	-280	5.59	-150	-105	19			5.59	0.054378695	-0.75159779	-0.037106899	-0.656328269	16385.09341
5.6	878	-12327	-585	-10742	5.6	2025	-142	-319	5.6	-145	-64	19			5.6	0.053586557	-0.752347936	-0.035704027	-0.655611384	16384.70634
5.61	859	-12325	-563	-10747	5.61	2015	-115	-288	5.61	-165	33	-8			5.61	0.052426951	-0.752226036	-0.034361319	-0.655916691	16384.70274
5.62	819	-12326	-525	-10751	5.62	2024	-61	-277	5.62	-308	24	15			5.62	0.049985446	-0.752284016	-0.032041953	-0.656158158	16384.76924
5.63	759	-12326	-466	-10758	5.63	2018	-144	-290	5.63	-478	43	-14			5.63	0.046323732	-0.752287639	-0.028441184	-0.656588546	16384.69032
5.64	721	-12324	-414	-10765	5.64	2019	-163	-252	5.64	-360	30	26			5.64	0.044004546	-0.752166469	-0.02526752	-0.657016556	16384.67082
5.65	704	-12331	-385	-10759	5.65	2027	-134	-314	5.65	-182	-22	27			5.65	0.042967307	-0.752599241	-0.023497746	-0.656655197	16384.55013
5.66	677	-12331	-355	-10761	5.66	2019	-133	-316	5.66	-230	33	-9			5.66	0.041320679	-0.752622297	-0.021667417	-0.656797383	16384.04822
5.67	642	-12327	-314	-10770	5.67	2009	-199	-265	5.67	-307	53	-35			5.67	0.039182882	-0.752347954	-0.019164213	-0.65732031	16384.70595
5.68	624	-12326	-284	-10773	5.68	2018	-113	-265	5.68	-191	18	37			5.68	0.03808435	-0.752287975	-0.017333262	-0.657504329	16384.683
5.69	595	-12325	-258	-10776	5.69	2026	-75	-289	5.69	-215	31	2			5.69	0.036315043	-0.752240178	-0.015746691	-0.657698999	16384.39471
5.7	549	-12323	-211	-10782	5.7	2018	-160	-262	5.7	-376	30	-22			5.7	0.033507157	-0.752110568	-0.012877979	-0.658058601	16384.55904
5.71	508	-12325	-161	-10782	5.71	2014	-149	-241	5.71	-363	-16	13			5.71	0.031005531	-0.752250345	-0.009826556	-0.658074095	16384.17328
5.72	470	-12329	-117	-10781	5.72	2009	-128	-284	5.72	-331	-6	12			5.72	0.028684742	-0.752455722	-0.00714067	-0.657979166	16385.01727
5.73	434	-12332	-76	-10779	5.73	2024	-139	-279	5.73	-304	-9	5			5.73	0.026488087	-0.752652265	-0.004638467	-0.657868858	16384.7245
5.74	398	-12341	-28	-10771	5.74	2024	-313	-255	5.74	-349	-75	-63			5.74	0.024290252	-0.753180918	-0.001708862	-0.657362585	16385.17348
5.75	308	-12376	-45	-10733	5.75	2043	-337	-81	5.75	-345	-406	-551			5.75	0.018797984	-0.75533719	-0.002746459	-0.65506093	16384.7354
5.76	204	-12441	-154	-10659	5.76	1994	-14	-374	5.76	-46	-536	-835			5.76	0.012450647	-0.759306362	-0.009399018	-0.6505463	16384.69084
5.77	174	-12390	-205	-10718	5.77	1924	261	-448	5.77	79	522	-188			5.77	0.010619633	-0.756191122	-0.012511637	-0.654144991	16384.74672
5.78	207	-12360	-187	-10752	5.78	2073	-128	-687	5.78	64	478	126			5.78	0.012633866	-0.75436999	-0.011413203	-0.656228651	16384.53301
5.79	230	-12354	-148	-10759	5.79	1992	-243	-49	5.79	-62	-70	125			5.79	0.014037648	-0.754004803	-0.009032921	-0.656656765	16384.51101
5.8	221	-12367	-155	-10745	5.8	2008	-144	-356	5.8	-25	-68	-132			5.8	0.013487887	-0.754772399	-0.00945983	-0.655779852	16385.07186
5.81	216	-12366	-140	-10746	5.81	2006	-46	-291	5.81	-82	9	31			5.81	0.013182973	-0.754725216	-0.00854452	-0.655852917	16384.77122
5.82	249	-12357	-129	-10756	5.82	2037	-119	-186	5.82	93	25	116			5.82	0.0151969	-0.754169044	-0.007873093	-0.65645725	16384.92072
5.83	253	-12362	-131	-10750	5.83	2029	-120	-376	5.83	19	9	-46			5.83	0.015441111	-0.754478296	-0.0079952	-0.656094619	16384.83183
5.84	248	-12361	-136	-10751	5.84	2002	-7	-196	5.84	-5	-37	-28			5.84	0.015136074	-0.754423435	-0.008300428	-0.656161019	16384.6978
5.85	253	-12359	-120	-10753	5.85	2020	-88	-329	5.85	-40	41	50			5.85	0.015441468	-0.754312642	-0.007324016	-0.656292891	16384.45297
5.86	-3705	-11623	4041	-10164	5.86	2020	-81	-248	5.86	-388	21	8			5.86	-0.226125872	-0.709382189	0.246632834	-0.620335591	16384.67976
5.87	-3747	-11605	4086	-10151	5.87	2019	-11	-252	5.87	-370	3	17			5.87	-0.228690733	-0.708288219	0.249380927	-0.619546205	16384.57296
5.88	-3805	-11585	4144	-10128	5.88	2008	-27	-288	5.88	-491	1	0			5.88	-0.232237076	-0.70708713	0.252927844	-0.618159556	16384.11945
5.89	-3850	-11564	4201	-10113	5.89	2013	-74	-259	5.89	-436	1	22			5.89	-0.234970336	-0.705765445	0.256392307	-0.617209092	16385.04702
5.9	-3889	-11544	4252	-10099	5.9	2022	-102	-247	5.9	-383	-8	5			5.9	-0.23735595	-0.704560834	0.259510799	-0.616368664	16384.67461
5.91	-3914	-11531	4290	-10088	5.91	2013	-114	-225	5.91	-272	-31	-8			5.91	-0.238882816	-0.703770504	0.261831191	-0.615700012	16384.60256
5.92	-3932	-11529	4320	-10071	5.92	2015	-53	-258	5.92	-211	-77	-11			5.92	-0.239976624	-0.703634409	0.263656921	-0.614650198	16384.92923
5.93	-3967	-11519	4358	-10052	5.93	2020	-22	-304	5.93	-311	-19	-6			5.93	-0.242115704	-0.703032718	0.265979389	-0.613498123	16384.72819
5.94	-3991	-11500	4392	-10050	5.94	2017	-65	-254	5.94	-248	42	22			5.94	-0.243575526	-0.701858818	0.268049037	-0.613363576	16385.06164
5.95	-4014	-11486	4421	-10043	5.95	2019	-58	-265	5.95	-226	18	4			5.95	-0.244989629	-0.701034102	0.269830382	-0.612962344	16384.367
5.96	-4054	-11471	4459	-10027	5.96	2011	8	-287	5.96	-332	9	3			5.96	-0.24743343	-0.700125526	0.27215236	-0.611991862	16384.2048
5.97	-4095	-11450	4503	-10016	5.97	2017	12	-261	5.97	-360	30	38			5.97	-0.249923448	-0.698809152	0.274824245	-0.611290172	16385.01724
5.98	-4125	-11427	4538	-10014	5.98	2019	-26	-242	5.98	-276	62	39			5.98	-0.251755887	-0.697409582	0.276961992	-0.611171747	16384.91971
5.99	-4147	-11404	4574	-10014	5.99	2017	-87	-263	5.99	-251	65	43			5.99	-0.253105702	-0.696025422	0.279166984	-0.611188932	16384.45901
6	-4176	-11386	4611	-10006	6	2021	-72	-260	6	-282	26	12			6	-0.25487053	-0.6949128	0.281419544	-0.610688344	16384.78956
6.01	-4219	-11364	4664	-9988	6.01	2017	-120	-258	6.01	-421	-4	-13			6.01	-0.257498671	-0.693580209	0.284658403	-0.609598656	16384.55056
6.02	-4278	-11346	4734	-9951	6.02	2017	-91	-290	6.02	-562	-69	-15			6.02	-0.261093468	-0.692465285	0.288923908	-0.607326111	16384.93689
6.03	-4358	-11309	4829	-9913	6.03	2012	-109	-316	6.03	-755	-2	32			6.03	-0.265972882	-0.690199018	0.294718459	-0.604999811	16385.12908
6.04	-4419	-11268	4904	-9894	6.04	2019	-89	-208	6.04	-592	29	62			6.04	-0.269714164	-0.687743653	0.299316194	-0.603881407	16384.01163
6.05	-4418	-11284	4971	-9843	6.05	2013	-178	-395	6.05	-296	-286	54			6.05	-0.269649597	-0.688711192	0.303401572	-0.600760747	16384.22626
6.06	-4484	-11248	5051	-9814	6.06	2027	44	-136	6.06	-625	-74	120			6.06	-0.273673739	-0.686503616	0.308279673	-0.598981729	16384.47305
6.07	-4541	-11217	5127	-9783	6.07	2016	-76	-288	6.07	-582	-24	56			6.07	-0.277160886	-0.684631944	0.312927519	-0.597107454	16383.98572
6.08	-4536	-11203	5158	-9787	6.08	2037	-287	80	6.08	-122	-190	8			6.08	-0.276836193	-0.683729249	0.314797418	-0.597309485	16385.14077
6.09	-4607	-11177	5119	-9803	6.09	1990	215	-82	6.09	-134	238	-209			6.09	-0.281179909	-0.68216797	0.312428902	-0.598308366	16384.5277
6.1	-4596	-11152	5155	-9817	6.1	2037	-95	-297	6.1	-106	84	184			6.1	-0.280516336	-0.680661048	0.314634837	-0.599179475	16384.07257
6.11	-4603	-11173	5134	-9802	6.11	2003	23	-157	6.11	54	-137	-161			6.11	-0.280931616	-0.68191374	0.31333976	-0.598238475	16384.77031
6.12	-4643	-11161	5133	-9797	6.12	2003	27	-316	6.12	-178	124	-124			6.12	-0.283376301	-0.68118951	0.31328248	-0.597940474	16384.57409
6.13	-4609	-11154	5158	-9808	6.13	2037	-109	-237	6.13	45	-40	172			6.13	-0.281300048	-0.680759544	0.314807041	-0.598609433	16384.63991
6.14	-4606	-11152	5157	-9812	6.14	2027	-91	-274	6.14	10	26	-43			6.14	-0.281119093	-0.680642666	0.314748407	-0.598858128	16384.51504
6.15	-4616	-11148	5166	-9807	6.15	2008	-64	-267	6.15	-89	1	-39			6.15	-0.281730563	-0.680401281	0.315298979	-0.598555379	16384.44888
6.16	-4606	-11147	5175	-9809	6.16	2016	-27	-244	6.16	8	-26	55			6.16	-0.281110915	-0.680317711	0.315837818	-0.598657614	16384.99164
6.17	-4605	-11137	5179	-9818	6.17	2023	-107	-293	6.17	-17	83	-13			6.17	-0.281057208	-0.679725109	0.316090181	-0.599222513	16384.56466
6.18	-4598	-11148	5176	-9811	6.18	2015	-58	-269	6.18	34	-66	-52			6.18	-0.280623576	-0.680380955	0.315899876	-0.598781624	16384.93836
6.19	-4588	-11143	5180	-9818	6.19	2012	-43	-265	6.19	27	24	43			6.19	-0.280026031	-0.680106815	0.316158422	-0.599236176	16384.19107
6.2	-4589	-11128	5196	-9827	6.2	2019	-119	-232	6.2	-73	52	30			6.2	-0.280077711	-0.679168613	0.317124381	-0.599765453	16384.73833
6.21	-4587	-11141	5196	-9813	6.21	2013	-30	-305	6.21	-2	-74	-56			6.21	-0.279957635	-0.679966866	0.317126634	-0.598915255	16384.62191
6.22	-4579	-11135	5197	-9823	6.22	2018	-52	-281	6.22	33	53	31			6.22	-0.279469493	-0.679600961	0.317187804	-0.599525841	16384.61486
6.23	-4578	-11135	5198	-9822	6.23	2010	-36	-286	6.23	-5	3	5			6.23	-0.279418039	-0.679624261	0.317259713	-0.599485361	16384.05313
6.24	-4664	-11059	5242	-9846	6.24	1969	309	-178	6.24	-533	402	220			6.24	-0.284646125	-0.674935998	0.319921738	-0.600906035	16385.25731
6.25	-4664	-11069	5303	-9801	6.25	2210	-99	-341	6.25	-274	-266	91			6.25	-0.284656511	-0.675570951	0.323656406	-0.598181488	16384.6595
6.26	-4697	-11042	5368	-9780	6.26	2028	22	-102	6.26	-422	-117	169			6.26	-0.286673617	-0.673930185	0.327626991	-0.596906105	16384.48647
6.27	-4682	-11024	5415	-9781	6.27	2019	-454	-511	6.27	-155	104	24			6.27	-0.285764244	-0.672846011	0.330502644	-0.596979937	16384.13519
6.28	-4700	-11036	5397	-9769	6.28	2023	-137	-310	6.28	-22	6	-236			6.28	-0.286860527	-0.673572931	0.329401333	-0.596242657	16384.26886
6.29	-4702	-11027	5421	-9766	6.29	2024	-57	-229	6.29	-110	-33	71			6.29	-0.28697123	-0.67299697	0.330853049	-0.596035949	16384.91776
6.3	-4751	-11009	5444	-9750	6.3	2004	-8	-214	6.3	-321	35	-70			6.3	-0.289959523	-0.671893158	0.332254188	-0.595054799	16385.04556
6.31	-4820	-10975	5495	-9725	6.31	2021	0	-193	6.31	-531	32	-4			6.31	-0.29417947	-0.669838109	0.335376803	-0.593546753	16384.55599
6.32	-4873	-10950	5556	-9692	6.32	2026	-40	-307	6.32	-508	-12	23			6.32	-0.297414803	-0.668313584	0.339100481	-0.591533813	16384.52407
6.33	-4917	-10926	5615	-9664	6.33	2024	-125	-330	6.33	-461	1	9			6.33	-0.300087489	-0.6668204	0.342686852	-0.589799775	16385.22157
6.34	-4952	-10900	5650	-9654	6.34	2015	-90	-304	6.34	-314	83	5			6.34	-0.302235362	-0.665259581	0.344836388	-0.589212476	16384.58178
6.35	-4967	-10885	5674	-9650	6.35	2023	-123	-291	6.35	-177	47	-2			6.35	-0.303141501	-0.664323584	0.346290493	-0.588950168	16385.08743
6.36	-4996	-10866	5701	-9640	6.36	2019	-86	-278	6.36	-253	52	-17			6.36	-0.304917149	-0.663176488	0.347944889	-0.588350943	16384.7787
6.37	-5037	-10843	5737	-9623	6.37	2016	-28	-259	6.37	-343	36	8			6.37	-0.307421565	-0.661777254	0.350144435	-0.587317395	16384.6671
6.38	-5084	-10821	5777	-9599	6.38	2016	16	-228	6.38	-390	-1	4			6.38	-0.310291077	-0.660436613	0.352586851	-0.585854454	16384.61556
6.39	-5101	-10806	5812	-9586	6.39	2017	-140	-259	6.39	-240	-25	10			6.39	-0.311325765	-0.659515039	0.354719731	-0.585055633	16384.76661
6.4	-5124	-10794	5850	-9564	6.4	2012	-135	-306	6.4	-283	-31	-20			6.4	-0.312730771	-0.658785313	0.3570404	-0.58371528	16384.70042
6.41	-5163	-10776	5881	-9544	6.41	2019	-17	-254	6.41	-314	14	-17			6.41	-0.315114307	-0.657693545	0.35893613	-0.582500668	16384.53057
6.42	-5204	-10753	5918	-9524	6.42	2022	-46	-238	6.42	-357	8	-9			6.42	-0.317625492	-0.656308017	0.361204394	-0.581296155	16384.07535
6.43	-5246	-10726	5965	-9503	6.43	2025	-104	-286	6.43	-401	32	1			6.43	-0.320178282	-0.654638248	0.364060894	-0.579995084	16384.62163
6.44	-5282	-10699	6010	-9485	6.44	2024	-128	-323	6.44	-375	54	3			6.44	-0.322376891	-0.652993251	0.366808995	-0.578899055	16384.54912
6.45	-5322	-10668	6048	-9473	6.45	2022	-82	-265	6.45	-352	78	14			6.45	-0.324822758	-0.651110331	0.369133416	-0.578174744	16384.31997
6.46	-5362	-10643	6084	-9455	6.46	2024	-32	-262	6.46	-348	41	6			6.46	-0.327269826	-0.649595815	0.371337117	-0.577086201	16384.03412
6.47	-5388	-10622	6120	-9442	6.47	2025	-121	-259	6.47	-284	14	2			6.47	-0.328840434	-0.648281939	0.37351586	-0.576264175	16384.84641
6.48	-5410	-10603	6150	-9431	6.48	2016	-128	-249	6.48	-244	20	-3			6.48	-0.330186349	-0.647128625	0.375350471	-0.575598421	16384.68706
6.49	-5441	-10584	6176	-9417	6.49	2018	-37	-262	6.49	-263	35	-11			6.49	-0.332084277	-0.645980517	0.376944036	-0.574754207	16384.39508
6.5	-5481	-10564	6212	-9393	6.5	2011	-9	-282	6.5	-350	16	2			6.5	-0.334520361	-0.644749698	0.379135283	-0.573280378	16384.65288
6.51	-5527	-10542	6258	-9360	6.51	2019	-10	-283	6.51	-424	-15	0			6.51	-0.337329873	-0.643410805	0.381945059	-0.571269696	16384.55544
6.52	-5576	-10513	6315	-9325	6.52	2018	-74	-245	6.52	-490	-38	5			6.52	-0.340322942	-0.641645461	0.385426718	-0.569137631	16384.43759
6.53	-5613	-10483	6374	-9297	6.53	2013	-148	-236	6.53	-452	-46	31			6.53	-0.342573942	-0.639800932	0.389019473	-0.5674167	16384.78389
6.54	-5654	-10454	6425	-9269	6.54	2013	-119	-239	6.54	-434	-20	0			6.54	-0.345084185	-0.638045644	0.392141119	-0.565720783	16384.40777
6.55	-5692	-10428	6468	-9246	6.55	2014	-91	-252	6.55	-379	1	-2			6.55	-0.347392612	-0.63643889	0.394753236	-0.564299384	16384.91953
6.56	-5733	-10402	6511	-9219	6.56	2024	-53	-283	6.56	-393	11	2			6.56	-0.349903785	-0.634868161	0.397387675	-0.562665793	16384.50411
6.57	-5776	-10379	6553	-9188	6.57	2022	-21	-276	6.57	-404	-9	-1			6.57	-0.352531502	-0.633470301	0.399954801	-0.560778989	16384.35138
6.58	-5807	-10355	6596	-9165	6.58	2011	-94	-247	6.58	-345	-27	10			6.58	-0.354420419	-0.631999903	0.402575699	-0.559370267	16384.49618
6.59	-5835	-10331	6636	-9145	6.59	2019	-136	-254	6.59	-329	-9	-1			6.59	-0.356134265	-0.630543804	0.40502262	-0.558157302	16384.27011
6.6	-5864	-10310	6666	-9129	6.6	2019	-105	-272	6.6	-280	25	-19			6.6	-0.357895933	-0.629247453	0.406844183	-0.557167798	16384.65114
6.61	-5898	-10285	6696	-9113	6.61	2022	-52	-260	6.61	-303	42	-3			6.61	-0.359975054	-0.627728625	0.408679716	-0.556197468	16384.46868
6.62	-5946	-10260	6731	-9084	6.62	2022	24	-284	6.62	-392	37	-15			6.62	-0.362906605	-0.62620615	0.410818089	-0.554430474	16384.38076
6.63	-6011	-10226	6784	-9040	6.63	2015	68	-274	6.63	-560	4	11			6.63	-0.366874126	-0.624131561	0.414053248	-0.551745483	16384.36612
6.64	-6054	-10183	6846	-9013	6.64	2016	-152	-234	6.64	-503	1	44			6.64	-0.36949938	-0.621508454	0.417838248	-0.550098762	16384.33062
6.65	-6077	-10151	6899	-8994	6.65	2026	-245	-233	6.65	-368	-31	16			6.65	-0.370893021	-0.619538433	0.421061535	-0.548924112	16384.77852
6.66	-6096	-10137	6930	-8973	6.66	2029	-119	-286	6.66	-251	-33	-26			6.66	-0.372053571	-0.61868554	0.422954601	-0.547643815	16384.73723
6.67	-6117	-10121	6955	-8957	6.67	2019	-51	-279	6.67	-223	5	5			6.67	-0.373340404	-0.617717547	0.42448627	-0.546674841	16384.5111
6.68	-6147	-10102	6978	-8941	6.68	2013	-13	-241	6.68	-252	24	-5			6.68	-0.375158983	-0.616537505	0.425875936	-0.545680245	16385.05349
6.69	-6180	-10079	7004	-8923	6.69	2023	-27	-245	6.69	-287	27	-1			6.69	-0.377183826	-0.615151421	0.427475003	-0.544597294	16384.58379
6.7	-6200	-10054	7041	-8908	6.7	2021	-161	-258	6.7	-280	-3	3			6.7	-0.37840697	-0.613629625	0.429736044	-0.543685369	16384.47622
6.71	-6216	-10036	7069	-8895	6.71	2020	-145	-258	6.71	-220	-6	-12			6.71	-0.379383026	-0.612530252	0.431444435	-0.542891251	16384.49688
6.72	-6244	-10016	7095	-8878	6.72	2011	-32	-262	6.72	-260	19	3			6.72	-0.381082048	-0.611293688	0.43302004	-0.541839593	16384.92298
6.73	-6283	-9993	7120	-8856	6.73	2017	24	-238	6.73	-309	33	-6			6.73	-0.383466875	-0.609897259	0.434551034	-0.540503365	16384.72685
6.74	-6325	-9963	7152	-8833	6.74	2019	-21	-270	6.74	-364	55	-5			6.74	-0.386044105	-0.60808813	0.436519753	-0.539118985	16384.13827
6.75	-6373	-9925	7201	-8803	6.75	2014	-77	-251	6.75	-473	27	7			6.75	-0.3889535	-0.605737249	0.43948755	-0.53725995	16384.99204
6.76	-6411	-9891	7251	-8772	6.76	2017	-110	-261	6.76	-435	-10	17			6.76	-0.391280112	-0.603673621	0.442547511	-0.535378122	16384.68147
6.77	-6446	-9862	7295	-8742	6.77	2026	-94	-280	6.77	-397	-7	-1			6.77	-0.39342229	-0.601912911	0.445239777	-0.53355533	16384.43008
6.78	-6482	-9833	7334	-8715	6.78	2022	-73	-255	6.78	-374	1	-2			6.78	-0.395624328	-0.600150265	0.447625551	-0.531913918	16384.23004
6.79	-6522	-9801	7377	-8685	6.79	2023	-56	-251	6.79	-407	1	7			6.79	-0.398063887	-0.598194443	0.450247975	-0.530080475	16384.30465
6.8	-6560	-9770	7418	-8657	6.8	2022	-94	-275	6.8	-401	17	-11			6.8	-0.400374653	-0.59628969	0.452740729	-0.528360271	16384.65358
6.81	-6601	-9734	7460	-8631	6.81	2018	-92	-256	6.81	-414	35	3			6.81	-0.402867357	-0.594078299	0.455293211	-0.526760818	16385.04556
6.82	-6633	-9704	7494	-8610	6.82	2011	-112	-250	6.82	-334	29	-10			6.82	-0.404830368	-0.592262007	0.457379583	-0.525492155	16384.6404
6.83	-6667	-9676	7524	-8589	6.83	2017	-92	-255	6.83	-323	35	-26			6.83	-0.4069063	-0.590554276	0.459211489	-0.524211521	16384.60747
6.84	-6705	-9648	7555	-8564	6.84	2014	-27	-239	6.84	-347	23	-10			6.84	-0.409221215	-0.588839117	0.461098624	-0.522680161	16384.78105
6.85	-6735	-9624	7588	-8538	6.85	2017	-73	-260	6.85	-325	-6	-17			6.85	-0.411055444	-0.587379004	0.463116364	-0.521097458	16384.65102
6.86	-6761	-9597	7618	-8520	6.86	2018	-93	-245	6.86	-290	21	2			6.86	-0.412656848	-0.585751778	0.464963743	-0.520017209	16384.07318
6.87	-6783	-9574	7645	-8505	6.87	2019	-83	-243	6.87	-246	12	4			6.87	-0.413989005	-0.584332999	0.466599726	-0.51908838	16384.49313
6.88	-6799	-9557	7668	-8490	6.88	2022	-90	-259	6.88	-204	-2	-6			6.88	-0.414973762	-0.583306993	0.468012768	-0.518183151	16384.1684
6.89	-6813	-9541	7689	-8479	6.89	2019	-76	-247	6.89	-179	3	1			6.89	-0.415812107	-0.58230784	0.469276279	-0.517491686	16384.8043
6.9	-6842	-9520	7713	-8457	6.9	2012	-17	-260	6.9	-271	14	-9			6.9	-0.417587663	-0.581033989	0.47074739	-0.516155929	16384.58367
6.91	-6873	-9495	7740	-8435	6.91	2019	-16	-249	6.91	-295	26	1			6.91	-0.419483282	-0.579513132	0.472399331	-0.514817617	16384.4432
6.92	-6901	-9467	7773	-8413	6.92	2021	-82	-276	6.92	-314	24	8			6.92	-0.421195351	-0.577808489	0.474416963	-0.513478697	16384.32141
6.93	-6924	-9438	7806	-8396	6.93	2013	-147	-264	6.93	-293	25	-2			6.93	-0.42260064	-0.57604056	0.476432784	-0.512442948	16384.26294
6.94	-6938	-9417	7828	-8388	6.94	2025	-147	-228	6.94	-193	13	-8			6.94	-0.423448975	-0.574750504	0.477768604	-0.511947247	16384.50063
6.95	-6962	-9399	7848	-8370	6.95	2014	-12	-252	6.95	-227	17	-5			6.95	-0.424908402	-0.573644652	0.478983214	-0.51084219	16384.70778
6.96	-6992	-9379	7871	-8345	6.96	2017	13	-242	6.96	-273	5	-11			6.96	-0.426749931	-0.572438159	0.480398843	-0.509328973	16384.30258
6.97	-7026	-9351	7906	-8315	6.97	2013	-60	-241	6.97	-362	-7	-9			6.97	-0.428821441	-0.570724351	0.482530929	-0.507493635	16384.44195
6.98	-7061	-9317	7947	-8284	6.98	2022	-97	-248	6.98	-403	-4	-8			6.98	-0.430962641	-0.568655845	0.485038961	-0.505607494	16384.25082
6.99	-7090	-9284	7983	-8261	6.99	2022	-126	-241	6.99	-340	14	0			6.99	-0.432741104	-0.566652808	0.487245731	-0.504213576	16383.93011
7	-7117	-9257	8011	-8242	7	2008	-85	-232	7	-289	20	-5			7	-0.434375098	-0.564986691	0.488939006	-0.503037734	16384.45675
7.01	-7142	-9234	8036	-8222	7.01	2018	-53	-234	7.01	-264	9	-4			7.01	-0.435898436	-0.563579691	0.490462032	-0.501814189	16384.55065
7.02	-7162	-9211	8065	-8202	7.02	2019	-91	-241	7.02	-259	-16	1			7.02	-0.437118859	-0.562175622	0.492231722	-0.500593253	16384.55962
7.03	-7181	-9188	8093	-8183	7.03	2019	-95	-244	7.03	-257	-12	-1			7.03	-0.438286284	-0.560781837	0.493949435	-0.499442509	16384.26816
7.04	-7205	-9168	8115	-8163	7.04	2011	-32	-241	7.04	-241	9	-2			7.04	-0.439744715	-0.559553025	0.495284991	-0.498214588	16384.50619
7.05	-7225	-9146	8138	-8148	7.05	2012	-59	-237	7.05	-224	14	7			7.05	-0.440953188	-0.558194859	0.496675023	-0.497285339	16384.95923
7.06	-7245	-9124	8161	-8130	7.06	2019	-77	-265	7.06	-238	17	-5			7.06	-0.442199076	-0.556883971	0.498107199	-0.496215112	16384.02338
7.07	-7265	-9103	8186	-8112	7.07	2026	-65	-242	7.07	-239	0	-1			7.07	-0.443400161	-0.555577656	0.499610973	-0.495094578	16384.74821
7.08	-7282	-9082	8211	-8094	7.08	2019	-91	-237	7.08	-229	-14	-2			7.08	-0.444451262	-0.554312875	0.501152061	-0.494011056	16384.24869
7.09	-7301	-9063	8233	-8077	7.09	2019	-72	-250	7.09	-220	3	-7			7.09	-0.445594991	-0.553133462	0.502476861	-0.492955861	16384.83409
7.1	-7325	-9039	8260	-8054	7.1	2020	-54	-256	7.1	-278	7	0			7.1	-0.447067359	-0.55167807	0.504133295	-0.491560479	16384.55559
7.11	-7344	-9014	8285	-8039	7.11	2015	-128	-210	7.11	-238	-8	-9			7.11	-0.448227308	-0.550152636	0.505659484	-0.490645334	16384.54388
7.12	-7363	-8994	8306	-8022	7.12	2023	-77	-227	7.12	-222	-4	-10			7.12	-0.449391418	-0.548937446	0.506946234	-0.489612652	16384.38052
7.13	-7391	-8973	8330	-7995	7.13	2021	-9	-271	7.13	-279	13	-15			7.13	-0.45109817	-0.547653075	0.508408572	-0.487962369	16384.46017
7.14	-7427	-8945	8361	-7961	7.14	2014	5	-269	7.14	-363	12	-7			7.14	-0.45328975	-0.545937366	0.510294278	-0.485881204	16384.66344
7.15	-7451	-8912	8396	-7939	7.15	2025	-133	-223	7.15	-326	-5	8			7.15	-0.454750735	-0.543918743	0.512426141	-0.484534437	16384.80033
7.16	-7471	-8885	8425	-7919	7.16	2024	-139	-234	7.16	-273	-9	-11			7.16	-0.455981086	-0.542282418	0.51420702	-0.483324082	16384.45153
7.17	-7504	-8860	8454	-7885	7.17	2024	19	-278	7.17	-341	10	-5			7.17	-0.457992883	-0.540753857	0.515974391	-0.48124652	16384.53408
7.18	-7541	-8824	8495	-7846	7.18	2016	-42	-248	7.18	-431	-21	5			7.18	-0.460249875	-0.538555218	0.51847536	-0.478864941	16384.57805
7.19	-7569	-8786	8533	-7819	7.19	2024	-162	-250	7.19	-372	9	-4			7.19	-0.461977721	-0.536257928	0.520815946	-0.477236597	16383.90695
7.2	-7609	-8748	8565	-7789	7.2	2016	-65	-243	7.2	-396	49	-17			7.2	-0.46440208	-0.533918964	0.522749877	-0.475388067	16384.50887
7.21	-7642	-8717	8596	-7756	7.21	2015	-45	-260	7.21	-362	9	-11			7.21	-0.466432793	-0.532045886	0.524660598	-0.473390833	16383.9252
7.22	-7676	-8681	8630	-7727	7.22	2018	-110	-225	7.22	-377	14	-16			7.22	-0.468480807	-0.529817859	0.526705233	-0.471593434	16384.87614
7.23	-7714	-8647	8666	-7686	7.23	2012	-17	-249	7.23	-418	-7	-10			7.23	-0.470811953	-0.527756152	0.528915787	-0.469103016	16384.46084
7.24	-7745	-8611	8705	-7651	7.24	2016	-79	-229	7.24	-401	-27	3			7.24	-0.472705209	-0.525560304	0.531297462	-0.466968051	16384.41857
7.25	-7759	-8580	8736	-7637	7.25	2026	-185	-217	7.25	-257	-12	5			7.25	-0.473550176	-0.523657754	0.533178804	-0.466104227	16384.74736
7.26	-7779	-8559	8759	-7613	7.26	2013	-38	-260	7.26	-249	-8	-6			7.26	-0.47478212	-0.522388503	0.534595267	-0.464650505	16384.35754
7.27	-7807	-8538	8782	-7580	7.27	2017	46	-263	7.27	-292	-6	-4			7.27	-0.47650931	-0.521126744	0.536019567	-0.462654102	16383.73025
7.28	-7831	-8509	8812	-7554	7.28	2018	-69	-250	7.28	-306	-5	5			7.28	-0.47796057	-0.519341909	0.537835339	-0.461054035	16384.19672
7.29	-7864	-8472	8852	-7515	7.29	2019	-69	-235	7.29	-423	-34	1			7.29	-0.479967101	-0.517075442	0.540268156	-0.458666425	16384.45632
7.3	-7880	-8442	8884	-7494	7.3	2017	-129	-237	7.3	-281	-20	18			7.3	-0.480946461	-0.515247464	0.542224411	-0.457387408	16384.3601
7.31	-7892	-8419	8911	-7475	7.31	2014	-109	-242	7.31	-231	-36	5			7.31	-0.481681096	-0.513846065	0.543874841	-0.456229877	16384.28427
7.32	-9730	-5013	11330	-4501	7.32	2011	-90	-281	7.32	-238	-17	16			7.32	-0.593877033	-0.305971795	0.691534099	-0.274721534	16383.8631
7.33	-9729	-4989	11348	-4486	7.33	2011	-117	-315	7.33	-172	-41	32			7.33	-0.593800632	-0.30449906	0.692614819	-0.273798914	16384.28705
7.34	-9732	-4972	11359	-4470	7.34	2017	-86	-276	7.34	-149	-38	-1			7.34	-0.593988683	-0.303464009	0.69329197	-0.272824642	16384.15054
7.35	-9732	-4951	11380	-4440	7.35	2020	-63	-309	7.35	-214	-87	2			7.35	-0.593986652	-0.302181249	0.694571321	-0.270992677	16384.20657
7.36	-9736	-4912	11409	-4400	7.36	2020	-102	-321	7.36	-343	-78	27			7.36	-0.59423024	-0.299800631	0.696340675	-0.268551053	16384.22171
7.37	-9751	-4858	11434	-4362	7.37	2025	-164	-342	7.37	-401	5	33			7.37	-0.595142602	-0.296503206	0.697862836	-0.266230339	16384.3085
7.38	-9773	-4813	11447	-4329	7.38	2020	-131	-334	7.38	-343	71	5			7.38	-0.596479815	-0.293753949	0.698649794	-0.264213764	16384.46056
7.39	-9793	-4782	11453	-4303	7.39	2019	-87	-287	7.39	-253	50	-13			7.39	-0.597692866	-0.291858193	0.699007086	-0.262623548	16384.66939
7.4	-9807	-4753	11466	-4266	7.4	2023	-27	-279	7.4	-281	-17	-4			7.4	-0.598570981	-0.290099712	0.699828171	-0.26037563	16384.02179
7.41	-9816	-4702	11499	-4215	7.41	2013	-103	-307	7.41	-437	-85	30			7.41	-0.599098296	-0.286976384	0.701816555	-0.257253394	16384.62346
7.42	-9833	-4634	11530	-4162	7.42	2022	-176	-353	7.42	-523	1	42			7.42	-0.600170393	-0.282842428	0.703749072	-0.254033273	16383.68057
7.43	-9863	-4578	11543	-4118	7.43	2022	-132	-327	7.43	-433	92	-1			7.43	-0.601989555	-0.279418857	0.704528586	-0.251342694	16384.00519
7.44	-9890	-4538	11546	-4091	7.44	2003	-137	-292	7.44	-298	108	-25			7.44	-0.603619161	-0.276969035	0.704690276	-0.249687158	16384.50307
7.45	-9912	-4511	11548	-4061	7.45	2015	-29	-276	7.45	-246	60	-20			7.45	-0.604969838	-0.275324752	0.704821599	-0.247859414	16384.2879
7.46	-9922	-4482	11562	-4029	7.46	2024	-64	-291	7.46	-262	-19	-2			7.46	-0.605577694	-0.273553641	0.705673181	-0.245905314	16384.35513
7.47	-9926	-4443	11584	-3997	7.47	2018	-129	-326	7.47	-304	-43	21			7.47	-0.605840226	-0.271181556	0.707037395	-0.24395964	16383.8576
7.48	-9936	-4405	11601	-3968	7.48	2011	-141	-322	7.48	-290	2	8			7.48	-0.606421717	-0.268849402	0.708041298	-0.242178077	16384.6375
7.49	-9948	-4362	11617	-3935	7.49	2009	-130	-314	7.49	-325	7	10			7.49	-0.607185418	-0.266238721	0.709054383	-0.240176379	16383.79266
7.5	-9961	-4323	11633	-3898	7.5	2014	-70	-293	7.5	-326	-10	18			7.5	-0.607976302	-0.263857198	0.710027941	-0.237917039	16383.86227
7.51	-9980	-4271	11655	-3840	7.51	2024	-74	-313	7.51	-467	-12	-4			7.51	-0.60914106	-0.260685518	0.711376658	-0.234378925	16383.72564
7.52	-10016	-4198	11677	-3762	7.52	2012	-109	-330	7.52	-650	66	-37			7.52	-0.611313349	-0.256219393	0.712690293	-0.229608708	16384.39602
7.53	-10037	-4142	11690	-3725	7.53	2025	-156	-326	7.53	-393	71	20			7.53	-0.612616936	-0.252810536	0.713509214	-0.227358582	16383.81085
7.54	-10054	-4121	11687	-3712	7.54	2031	-94	-309	7.54	-153	93	-23			7.54	-0.61365316	-0.251528215	0.713324496	-0.226564604	16383.84784
7.55	-10068	-4102	11689	-3689	7.55	2016	-37	-270	7.55	-178	28	-22			7.55	-0.614505371	-0.250367603	0.713443909	-0.225159944	16383.90887
7.56	-10071	-4075	11703	-3668	7.56	2021	-89	-310	7.56	-201	-24	16			7.56	-0.614674018	-0.248713794	0.714281604	-0.223872932	16384.29428
7.57	-10073	-4050	11716	-3647	7.57	2012	-101	-311	7.57	-196	-31	4			7.57	-0.614809834	-0.24719347	0.715091037	-0.222596194	16383.92792
7.58	-10075	-4023	11729	-3630	7.58	2012	-128	-323	7.58	-189	-8	9			7.58	-0.614928009	-0.245543958	0.715879962	-0.221557188	16384.03171
7.59	-10083	-4001	11735	-3612	7.59	2008	-90	-314	7.59	-173	21	-1			7.59	-0.615421833	-0.244203387	0.716252624	-0.220460544	16383.88412
7.6	-10087	-3981	11745	-3590	7.6	2013	-54	-273	7.6	-175	-37	-2			7.6	-0.615668962	-0.242983854	0.716866457	-0.219118823	16383.80466
7.61	-10079	-3952	11768	-3571	7.61	2018	-106	-286	7.61	-203	-109	51			7.61	-0.615165372	-0.241207813	0.718252415	-0.21795372	16384.21222
7.62	-10079	-3914	11790	-3540	7.62	2019	-104	-313	7.62	-287	-71	36			7.62	-0.615166601	-0.238888985	0.71959661	-0.216062086	16384.17947
7.63	-10081	-3872	11811	-3508	7.63	2014	-160	-338	7.63	-314	-41	18			7.63	-0.615307703	-0.236332847	0.720900633	-0.214115606	16383.67267
7.64	-10095	-3833	11819	-3486	7.64	2015	-177	-331	7.64	-259	59	4			7.64	-0.61614254	-0.233944959	0.721365892	-0.212766012	16384.19577
7.65	-10114	-3810	11814	-3474	7.65	2008	-100	-306	7.65	-151	109	-14			7.65	-0.617294724	-0.232538353	0.721051995	-0.212031033	16384.39404
7.66	-10125	-3792	11816	-3454	7.66	2012	-42	-285	7.66	-163	24	-10			7.66	-0.617972433	-0.23144212	0.721181459	-0.210812522	16384.22598
7.67	-10134	-3767	11826	-3422	7.67	2020	-73	-294	7.67	-246	-14	-30			7.67	-0.618510517	-0.22991209	0.721778703	-0.208855633	16384.52334
7.68	-10141	-3732	11837	-3400	7.68	2017	-134	-304	7.68	-241	1	18			7.68	-0.618949659	-0.22778031	0.72246397	-0.207516896	16384.20807
7.69	-10146	-3708	11845	-3382	7.69	2021	-78	-314	7.69	-171	3	14			7.69	-0.619266072	-0.226319593	0.722965367	-0.206422024	16383.91067
7.7	-10144	-3696	11855	-3368	7.7	2010	-47	-299	7.7	-109	-54	10			7.7	-0.619128926	-0.225581675	0.723558105	-0.205562522	16384.3096
7.71	-10141	-3670	11873	-3341	7.71	2014	-118	-316	7.71	-224	-72	-1			7.71	-0.618953214	-0.223997465	0.724665369	-0.203917038	16384.11398
7.72	-10148	-3632	11887	-3313	7.72	2015	-150	-328	7.72	-276	-3	1			7.72	-0.619367911	-0.221673655	0.725505159	-0.20220397	16384.44586
7.73	-10155	-3602	11895	-3294	7.73	2021	-128	-325	7.73	-210	18	11			7.73	-0.619806893	-0.219846817	0.726007188	-0.201048144	16384.13531
7.74	-10165	-3569	11903	-3272	7.74	2017	-122	-308	7.74	-231	26	10			7.74	-0.620402808	-0.217827607	0.726478565	-0.199700736	16384.51644
7.75	-10175	-3542	11909	-3247	7.75	2022	-89	-283	7.75	-220	7	-9			7.75	-0.621023203	-0.216183212	0.726856543	-0.198178117	16384.25094
7.76	-10180	-3503	11925	-3214	7.76	2016	-122	-314	7.76	-296	-33	15			7.76	-0.621333986	-0.213804809	0.727839664	-0.196165759	16384.10297
7.77	-10191	-3473	11933	-3183	7.77	2019	-92	-315	7.77	-262	19	-18			7.77	-0.621996844	-0.21197086	0.728317961	-0.194271019	16384.32751
7.78	-10202	-3434	11944	-3147	7.78	2018	-92	-300	7.78	-312	-1	5			7.78	-0.622680143	-0.209594551	0.729003297	-0.192077476	16384.0137
7.79	-10209	-3408	11952	-3123	7.79	2021	-86	-319	7.79	-210	5	1			7.79	-0.623100805	-0.208005441	0.729483869	-0.190610619	16384.18683
7.8	-10221	-3391	11953	-3098	7.8	2017	-62	-331	7.8	-177	47	-45			7.8	-0.623835592	-0.206968642	0.72954768	-0.189085477	16384.12448
7.81	-10229	-3381	11951	-3088	7.81	2010	-44	-315	7.81	-85	42	-11			7.81	-0.624339904	-0.206363595	0.729444344	-0.188479971	16383.7037
7.82	-10210	-3406	11956	-3105	7.82	2012	-4	-317	7.82	175	-96	3			7.82	-0.623173076	-0.20788712	0.729741166	-0.189515416	16383.89139
7.83	-10176	-3486	11943	-3178	7.83	2027	70	-456	7.83	642	-19	9			7.83	-0.621090685	-0.212767505	0.728939274	-0.193968769	16384.08084
7.84	-10165	-3522	11925	-3239	7.84	2043	-300	-298	7.84	385	42	-88			7.84	-0.620430454	-0.214968624	0.72785373	-0.197695449	16383.78635
7.85	-10195	-3493	11908	-3240	7.85	2075	-185	-264	7.85	-128	186	-7			7.85	-0.622251468	-0.213195133	0.726804364	-0.197753287	16384.05133
7.86	-10211	-3582	11891	-3154	7.86	2047	-106	-209	7.86	-49	-129	-747			7.86	-0.62322605	-0.218626551	0.725764466	-0.192503669	16384.10333
7.87	-10326	-3568	11858	-2908	7.87	1863	167	152	7.87	-1143	67	-890			7.87	-0.630260679	-0.217777465	0.723768267	-0.177493517	16383.69702
7.88	-10383	-3478	11834	-2914	7.88	2084	247	-337	7.88	-322	444	421			7.88	-0.633724877	-0.212279218	0.722286448	-0.177855561	16384.08145
7.89	-10393	-3412	11842	-2922	7.89	2023	-228	-7	7.89	-233	-61	163			7.89	-0.634348086	-0.20825514	0.72278938	-0.178347456	16383.7493
7.9	-10403	-3459	11842	-2833	7.9	2072	-5	-472	7.9	-210	-4	-540			7.9	-0.634936328	-0.211116482	0.722764202	-0.17290922	16384.32003
7.91	-10391	-3420	11867	-2818	7.91	2022	104	-267	7.91	-206	-124	185			7.91	-0.634215555	-0.208739986	0.724303338	-0.171996866	16384.01947
7.92	-10426	-3379	11837	-2867	7.92	2059	-127	-74	7.92	32	239	194			7.92	-0.636331301	-0.20623091	0.722449032	-0.174981953	16384.54684
7.93	-10409	-3395	11853	-2839	7.93	2039	-94	-352	7.93	-63	-132	-196			7.93	-0.635325142	-0.207217683	0.723461323	-0.173281591	16383.73694
7.94	-10424	-3404	11843	-2817	7.94	1964	209	-121	7.94	-51	-15	-45			7.94	-0.636226115	-0.20776225	0.722834409	-0.171934859	16384.11212
7.95	-10441	-3370	11830	-2852	7.95	2013	-103	-266	7.95	3	189	163			7.95	-0.637245836	-0.205681301	0.722020711	-0.174066193	16384.57155
7.96	-10429	-3383	11840	-2834	7.96	2023	-54	-246	7.96	-29	-128	-139			7.96	-0.636546991	-0.206485614	0.722669132	-0.172976716	16383.70794
7.97	-10436	-3396	11834	-2820	7.97	1991	103	-270	7.97	-9	26	-77			7.97	-0.636958843	-0.207274073	0.722285449	-0.172118047	16384.10413
7.98	-10438	-3365	11832	-2856	7.98	2035	-116	-294	7.98	27	102	171			7.98	-0.637093774	-0.205386142	0.722177959	-0.174318818	16383.77334
7.99	-10427	-3372	11842	-2848	7.99	2029	-96	-265	7.99	-12	-94	-95			7.99	-0.636412004	-0.205810039	0.722776536	-0.173827696	16384.04044
8	-10425	-3383	11843	-2837	8	1999	57	-335	8	-2	-2	-65			8	-0.63629734	-0.206483827	0.722845985	-0.173158326	16383.84973
8.01	-10422	-3360	11845	-2868	8.01	2025	-109	-298	8.01	36	60	141			8.01	-0.636106411	-0.205077484	0.722959168	-0.175048281	16384.05118
8.02	-10412	-3369	11853	-2863	8.02	2027	-86	-305	8.02	3	-64	-93			8.02	-0.635480497	-0.205621763	0.723429728	-0.174738827	16384.45248
8.03	-10409	-3375	11855	-2857	8.03	2001	42	-325	8.03	2	-2	-27			8.03	-0.635307931	-0.205991379	0.723563793	-0.174375517	16384.18079
8.04	-10408	-3352	11857	-2880	8.04	2018	-104	-290	8.04	1	52	115			8.04	-0.635242357	-0.204586124	0.72368069	-0.175778054	16384.29788
8.05	-10399	-3351	11873	-2845	8.05	1946	219	-607	8.05	-135	50	17			8.05	-0.634710383	-0.204530675	0.724677024	-0.173646604	16383.85046
8.06	-10412	-3307	11907	-2706	8.06	2033	-15	368	8.06	-769	-539	-310			8.06	-0.635486658	-0.201839644	0.726732581	-0.165158173	16384.29364
8.07	-10380	-3266	11953	-2672	8.07	1940	528	-696	8.07	-256	-69	393			8.07	-0.633557321	-0.199344722	0.729567501	-0.163089129	16383.67935
8.08	-10434	-3018	11972	-2670	8.08	2091	-379	-247	8.08	-998	354	776			8.08	-0.636842116	-0.184204476	0.730714377	-0.162964199	16383.96667
8.09	-10482	-2835	11996	-2571	8.09	2076	-103	-228	8.09	-1133	148	332			8.09	-0.63978463	-0.173038487	0.732193896	-0.15692485	16383.63836
8.1	-10494	-2810	11997	-2551	8.1	2032	-11	-267	8.1	-182	45	26			8.1	-0.640478724	-0.171502308	0.732211098	-0.1556948	16384.61919
8.11	-10490	-2820	11996	-2558	8.11	2023	-163	-328	8.11	62	17	-96			8.11	-0.640253513	-0.172117722	0.732171701	-0.156126643	16384.13501
8.12	-10496	-2747	12023	-2487	8.12	2013	-259	-294	8.12	-602	-65	-69			8.12	-0.640607976	-0.167659119	0.733806183	-0.1517904	16384.43539
8.13	-10520	-2637	12056	-2339	8.13	2023	-100	-336	8.13	-1060	-31	-120			8.13	-0.642081747	-0.160947677	0.735830565	-0.14275943	16384.2066
8.14	-10559	-2505	12079	-2185	8.14	2003	-44	-333	8.14	-1168	74	-43			8.14	-0.644459992	-0.152890641	0.737231958	-0.133359701	16384.25989
8.15	-10615	-2377	12072	-2090	8.15	2024	-45	-258	8.15	-898	271	111			8.15	-0.647895205	-0.145082139	0.736824391	-0.127564859	16383.82245
8.16	-10647	-2305	12055	-2107	8.16	2051	-86	-240	8.16	-212	248	284			8.16	-0.64984294	-0.140686388	0.735780656	-0.128601397	16383.95886
8.17	-10640	-2290	12071	-2069	8.17	2022	47	-340	8.17	-215	-59	-28			8.17	-0.64940433	-0.139768413	0.73674433	-0.126279846	16384.24554
8.18	-10623	-2188	12118	-1990	8.18	2028	-124	-159	8.18	-721	-288	122			8.18	-0.648369169	-0.133543419	0.739615701	-0.121458594	16384.18436
8.19	-10622	-2046	12165	-1856	8.19	2016	-149	-343	8.19	-1113	-144	62			8.19	-0.648303952	-0.124875719	0.742479531	-0.113279244	16384.29007
8.2	-10624	-1951	12190	-1778	8.2	2021	-183	-284	8.2	-700	-76	35			8.2	-0.648440272	-0.119080099	0.744021735	-0.108520972	16383.92996
8.21	-10631	-1917	12192	-1758	8.21	2023	-188	-353	8.21	-226	74	-28			8.21	-0.64887318	-0.117005915	0.744150297	-0.107301199	16383.78705
8.22	-10660	-1893	12174	-1738	8.22	2009	-102	-254	8.22	-183	177	-46			8.22	-0.650622025	-0.115537288	0.743027442	-0.106077024	16384.32083
8.23	-10678	-1849	12170	-1702	8.23	2014	-58	-241	8.23	-319	82	11			8.23	-0.651722797	-0.112852168	0.742785769	-0.103880146	16384.26651
8.24	-10675	-1807	12184	-1661	8.24	2022	-49	-281	8.24	-334	-60	16			8.24	-0.651557338	-0.11029172	0.743660385	-0.101380491	16383.82284
8.25	-10674	-1762	12197	-1623	8.25	2023	-112	-300	8.25	-337	-30	4			8.25	-0.651483916	-0.107543064	0.744439697	-0.099059246	16384.13434
8.26	-10690	-1719	12194	-1588	8.26	2022	-87	-301	8.26	-318	98	1			8.26	-0.652452471	-0.104917287	0.744247467	-0.096921845	16384.33523
8.27	-10702	-1704	12186	-1577	8.27	2020	-75	-253	8.27	-108	75	-19			8.27	-0.653214681	-0.104006524	0.743793133	-0.096254864	16383.58767
8.28	-10701	-1678	12193	-1559	8.28	2020	-87	-244	8.28	-178	-35	7			8.28	-0.65314772	-0.102418641	0.744213638	-0.09515534	16383.7363
8.29	-10689	-1630	12216	-1522	8.29	2018	-96	-284	8.29	-341	-125	39			8.29	-0.652376467	-0.099482986	0.745573105	-0.092891476	16384.7112
8.3	-10678	-1583	12236	-1483	8.3	2017	-72	-309	8.3	-342	-95	46			8.3	-0.651722349	-0.096617014	0.746813511	-0.090513602	16384.27777
8.31	-10676	-1534	12249	-1441	8.31	2022	-162	-337	8.31	-369	-24	-21			8.31	-0.651600213	-0.093626333	0.747606876	-0.08795016	16384.27948
8.32	-10698	-1482	12241	-1399	8.32	2016	-163	-280	8.32	-386	130	-34			8.32	-0.652945158	-0.090452863	0.747121114	-0.085387014	16384.22442
8.33	-10715	-1456	12231	-1381	8.33	2019	-129	-271	8.33	-180	113	-28			8.33	-0.653991423	-0.08886715	0.74652068	-0.084289515	16384.00693
8.34	-10726	-1421	12229	-1351	8.34	2012	-116	-250	8.34	-269	49	-22			8.34	-0.654657595	-0.08673023	0.746392665	-0.082457804	16384.13742
8.35	-10721	-1374	12242	-1316	8.35	2022	-90	-263	8.35	-327	-71	40			8.35	-0.654369269	-0.08386376	0.747205353	-0.08032366	16383.7156
8.36	-10715	-1327	12258	-1273	8.36	2015	-115	-321	8.36	-361	-55	-4			8.36	-0.653972464	-0.08099127	0.74814694	-0.077695469	16384.4819
8.37	-10726	-1296	12254	-1249	8.37	2016	-120	-272	8.37	-225	66	-17			8.37	-0.654648755	-0.079099831	0.747908432	-0.076231241	16384.35867
8.38	-10734	-1287	12247	-1250	8.38	2018	-103	-280	8.38	-34	71	-10			8.38	-0.655162133	-0.078553537	0.747509842	-0.076295199	16383.73077
8.39	-10742	-1272	12243	-1242	8.39	2014	-100	-251	8.39	-97	44	-11			8.39	-0.65563146	-0.077635749	0.747244086	-0.075804717	16384.20462
8.4	-10738	-1251	12249	-1231	8.4	2017	-83	-258	8.4	-130	-41	14			8.4	-0.655410706	-0.076356751	0.747636965	-0.07513602	16383.62008
8.41	-10726	-1227	12264	-1217	8.41	2019	-110	-277	8.41	-155	-95	17			8.41	-0.654658289	-0.074889588	0.748529671	-0.074279241	16384.12006
8.42	-10716	-1201	12277	-1197	8.42	2013	-97	-273	8.42	-187	-88	7			8.42	-0.65405622	-0.073303613	0.749332607	-0.073059471	16383.91269
8.43	-10704	-1170	12293	-1177	8.43	2020	-106	-305	8.43	-204	-93	27			8.43	-0.653305421	-0.071409505	0.750288073	-0.071836741	16384.37347
8.44	-10706	-1150	12295	-1158	8.44	2015	-120	-333	8.44	-160	33	-34			8.44	-0.65342599	-0.070188669	0.75040842	-0.070676938	16384.41104
8.45	-10720	-1152	12282	-1165	8.45	2021	-91	-271	8.45	30	105	-30			8.45	-0.654278842	-0.070310562	0.749613129	-0.071103997	16384.45156
8.46	-10721	-1139	12282	-1163	8.46	2010	-92	-250	8.46	-61	-7	11			8.46	-0.654355717	-0.06951881	0.749631277	-0.070983649	16384.0549
8.47	-10708	-1108	12298	-1144	8.47	2019	-108	-309	8.47	-202	-87	35			8.47	-0.653560786	-0.067626574	0.75060614	-0.069823827	16384.09192
8.48	-10711	-1076	12301	-1121	8.48	2023	-96	-294	8.48	-217	11	12			8.48	-0.653724322	-0.065671494	0.750766772	-0.068417978	16384.58236
8.49	-10712	-1052	12303	-1108	8.49	2019	-93	-289	8.49	-150	7	27			8.49	-0.653796824	-0.064207828	0.750902009	-0.067625736	16384.29495
8.5	-10716	-1025	12303	-1084	8.5	2020	-93	-306	8.5	-204	34	-11			8.5	-0.65406895	-0.062562586	0.750934145	-0.06616375	16383.59381
8.51	-10730	-1012	12293	-1069	8.51	2018	-76	-287	8.51	-120	101	-30			8.51	-0.654928944	-0.061769626	0.750330056	-0.065248746	16383.45672
8.52	-10739	-995	12289	-1045	8.52	2012	-40	-261	8.52	-164	46	-25			8.52	-0.655466022	-0.060730859	0.750071882	-0.063782661	16383.76306
8.53	-10737	-955	12298	-1001	8.53	2026	-50	-279	8.53	-334	-40	-3			8.53	-0.655331369	-0.058288298	0.750606796	-0.061095902	16384.07761
8.54	-10733	-906	12309	-949	8.54	2013	-93	-297	8.54	-410	-45	-13			8.54	-0.655096737	-0.055298392	0.751289084	-0.05792293	16383.83981
8.55	-10736	-866	12312	-916	8.55	2011	-145	-286	8.55	-293	9	-14			8.55	-0.65527271	-0.052856387	0.75146401	-0.055908141	16384.01819
8.56	-10737	-842	12314	-906	8.56	2020	-148	-306	8.56	-137	15	1			8.56	-0.655319692	-0.051390442	0.751569963	-0.055296604	16384.36953
8.57	-10742	-822	12311	-897	8.57	2024	-132	-267	8.57	-123	33	-4			8.57	-0.655644384	-0.050171261	0.751409236	-0.054748931	16383.88165
8.58	-10745	-798	12311	-886	8.58	2022	-93	-292	8.58	-139	27	24			8.58	-0.655820201	-0.048705865	0.751400883	-0.054076938	16384.06378
8.59	-10747	-776	12312	-872	8.59	2010	-54	-275	8.59	-142	7	34			8.59	-0.655932048	-0.047362359	0.751450207	-0.05322162	16384.31912
8.6	-10746	-754	12317	-834	8.6	2023	16	-290	8.6	-241	-18	-19			8.6	-0.655867149	-0.04601934	0.751750947	-0.050902029	16384.41567
8.61	-10742	-714	12324	-804	8.61	2014	-149	-270	8.61	-280	-46	-1			8.61	-0.655649057	-0.043579727	0.75220806	-0.04907297	16383.76489
8.62	-10740	-676	12330	-773	8.62	2021	-140	-275	8.62	-281	-29	-7			8.62	-0.655523013	-0.041260108	0.752569716	-0.047180567	16383.86417
8.63	-10729	-642	12342	-756	8.63	2019	-86	-303	8.63	-198	-76	55			8.63	-0.654864917	-0.039185691	0.753317439	-0.046143898	16383.53152
8.64	-10721	-600	12354	-712	8.64	2015	-64	-290	8.64	-345	-74	6			8.64	-0.654366875	-0.036621595	0.754038651	-0.043457627	16383.77554
8.65	-10711	-531	12369	-649	8.65	2023	-147	-315	8.65	-532	-79	5			8.65	-0.653765352	-0.03241055	0.754964396	-0.039612895	16383.55407
8.66	-10712	-471	12373	-599	8.66	2017	-131	-294	8.66	-438	-8	17			8.66	-0.653828982	-0.028748455	0.755211538	-0.036561199	16383.4891
8.67	-10718	-428	12372	-563	8.67	2025	-108	-307	8.67	-318	39	9			8.67	-0.654166757	-0.026122725	0.755117663	-0.03436237	16384.20157
8.68	-10725	-391	12368	-527	8.68	2018	-55	-292	8.68	-289	51	13			8.68	-0.654616435	-0.023865271	0.754899401	-0.032166234	16383.63998
8.69	-10730	-349	12368	-477	8.69	2009	-81	-281	8.69	-366	18	-35			8.69	-0.654889908	-0.021300706	0.75486285	-0.029113	16384.43328
8.7	-10732	-290	12369	-426	8.7	2016	-175	-296	8.7	-449	9	-15			8.7	-0.655031609	-0.017700258	0.754946512	-0.026001068	16383.94217
8.71	-10736	-253	12367	-406	8.71	2017	-122	-293	8.71	-224	36	32			8.71	-0.655276154	-0.015441959	0.754824907	-0.024780376	16383.93207
8.72	-10745	-236	12359	-400	8.72	2012	-99	-323	8.72	-93	89	18			8.72	-0.655847008	-0.01440483	0.754361394	-0.024414965	16383.39409
8.73	-10762	-223	12345	-392	8.73	2011	-56	-254	8.73	-84	109	8			8.73	-0.656875516	-0.013611154	0.753496399	-0.023926334	16383.62176
8.74	-10759	-213	12349	-362	8.74	2018	-23	-308	8.74	-163	-16	-61			8.74	-0.656683559	-0.013000613	0.75373039	-0.022094939	16383.8425
8.75	-10765	-186	12345	-331	8.75	2018	-77	-247	8.75	-235	29	-25			8.75	-0.657052084	-0.011352688	0.753488897	-0.020202902	16383.78488
8.76	-10767	-163	12345	-316	8.76	2023	-87	-302	8.76	-153	21	10			8.76	-0.657143149	-0.009948392	0.753453346	-0.019286453	16384.55794
8.77	-10772	-136	12341	-289	8.77	2018	-115	-281	8.77	-221	43	-33			8.77	-0.657467242	-0.008300738	0.753230898	-0.017639067	16384.08624
8.78	-10249	3255	11944	3186	8.78	2024	-33	-299	8.78	-544	48	34			8.78	-0.625536148	0.198665251	0.72898856	0.194453914	16384.34491
8.79	-10230	3319	11927	3240	8.79	2020	-48	-261	8.79	-491	-43	5			8.79	-0.624408102	0.202581671	0.727987823	0.197759751	16383.5158
8.8	-10213	3380	11911	3293	8.8	2017	-8	-310	8.8	-474	-12	13			8.8	-0.623340344	0.206294954	0.726976093	0.200984995	16384.30771
8.81	-10197	3443	11889	3355	8.81	2015	12	-318	8.81	-519	26	16			8.81	-0.62237323	0.21014328	0.72564434	0.204772206	16384.05945
8.82	-10187	3508	11861	3417	8.82	2014	57	-307	8.82	-526	68	60			8.82	-0.621759593	0.214109419	0.723931533	0.208555269	16384.14609
8.83	-10190	3565	11829	3459	8.83	2027	-77	-251	8.83	-411	91	46			8.83	-0.621948484	0.217590417	0.721985144	0.211120688	16383.99362
8.84	-10192	3602	11808	3485	8.84	2024	-63	-280	8.84	-270	70	17			8.84	-0.622082015	0.219852768	0.720716682	0.212711521	16383.6918
8.85	-10183	3639	11793	3521	8.85	2024	9	-283	8.85	-309	15	-3			8.85	-0.621552668	0.222118252	0.719824277	0.214915736	16383.16514
8.86	-10164	3696	11776	3574	8.86	2003	0	-310	8.86	-460	-1	7			8.86	-0.620385008	0.225594548	0.718777436	0.218147975	16383.37462
8.87	-10164	3748	11751	3604	8.87	2025	-121	-262	8.87	-347	57	34			8.87	-0.620368537	0.228762424	0.717232456	0.219973259	16383.8096
8.88	-10159	3779	11739	3625	8.88	2014	-68	-264	8.88	-219	3	-12			8.88	-0.620061451	0.230653827	0.716497822	0.221254332	16383.85998
8.89	-10152	3804	11727	3654	8.89	2015	24	-253	8.89	-231	9	-12			8.89	-0.619660868	0.232189711	0.715796198	0.223033965	16383.15492
8.9	-10127	3850	11717	3710	8.9	2013	53	-274	8.9	-430	-46	-36			8.9	-0.618108367	0.234987382	0.715155104	0.226442386	16383.85846
8.91	-10100	3924	11695	3775	8.91	2006	-8	-309	8.91	-588	-25	23			8.91	-0.616459706	0.239503751	0.713811511	0.230409444	16383.87701
8.92	-10088	3987	11668	3823	8.92	2017	-83	-268	8.92	-469	29	24			8.92	-0.615738702	0.243353509	0.712176762	0.233343483	16383.57305
8.93	-10081	4029	11649	3857	8.93	2024	-47	-258	8.93	-323	22	3			8.93	-0.615295873	0.24591083	0.71099907	0.235412775	16383.98767
8.94	-10054	4075	11639	3908	8.94	2017	47	-297	8.94	-416	-52	-27			8.94	-0.613656754	0.248722028	0.710398941	0.238529003	16383.75189
8.95	-10007	4154	11622	3996	8.95	2026	62	-326	8.95	-710	-86	-31			8.95	-0.610779708	0.253540413	0.709351631	0.243896844	16383.97586
8.96	-9954	4274	11587	4102	8.96	2010	-24	-325	8.96	-963	-77	35			8.96	-0.607545406	0.260864885	0.707216056	0.250366813	16383.9606
8.97	-9939	4359	11546	4165	8.97	2020	-143	-230	8.97	-633	23	46			8.97	-0.606621088	0.266049031	0.704703399	0.254208354	16384.19797
8.98	-9938	4410	11517	4192	8.98	2031	-149	-285	8.98	-335	68	29			8.98	-0.606577957	0.269169731	0.702954149	0.255863835	16383.71438
8.99	-9928	4438	11506	4218	8.99	2021	-11	-299	8.99	-239	12	-17			8.99	-0.605951239	0.270871434	0.702263795	0.257443828	16384.15662
9	-9913	4469	11491	4258	9	2034	43	-289	9	-309	16	-28			9	-0.605066616	0.272777434	0.70138409	0.259898482	16383.32002
9.01	-9877	4526	11477	4322	9.01	2010	46	-332	9.01	-522	-48	-40			9.01	-0.602837993	0.276242255	0.700493231	0.263791212	16384.16974
9.02	-9858	4600	11445	4370	9.02	2023	-94	-231	9.02	-529	-27	55			9.02	-0.601696189	0.28076714	0.698560853	0.266728783	16383.68362
9.03	-9841	4650	11427	4403	9.03	2023	-62	-301	9.03	-360	-16	17			9.03	-0.600652496	0.283816087	0.697455144	0.268740264	16383.84933
9.04	-9836	4685	11406	4431	9.04	2019	-29	-288	9.04	-276	56	14			9.04	-0.600351568	0.285954361	0.696178323	0.270451179	16383.73334
9.05	-9836	4710	11390	4447	9.05	2018	-52	-272	9.05	-178	40	5			9.05	-0.60033794	0.287473739	0.695185964	0.271421596	16384.10525
9.06	-9834	4730	11378	4458	9.06	2018	-14	-263	9.06	-137	16	13			9.06	-0.600244718	0.288708309	0.694486923	0.272106056	16383.31786
9.07	-9811	4759	11375	4486	9.07	2028	35	-285	9.07	-252	-70	-25			9.07	-0.598834694	0.290475416	0.694296672	0.273812296	16383.48629
9.08	-9781	4808	11360	4538	9.08	2014	78	-316	9.08	-438	-35	-3			9.08	-0.5969933	0.293461178	0.693369174	0.276981453	16383.76846
9.09	-9764	4865	11333	4581	9.09	2026	-60	-272	9.09	-434	5	28			9.09	-0.595957351	0.29694106	0.691723131	0.279606782	16383.72275
9.1	-9753	4910	11311	4612	9.1	2019	-58	-285	9.1	-336	18	23			9.1	-0.595272643	0.299680988	0.6903649	0.281492611	16384.08905
9.11	-9759	4939	11287	4626	9.11	2021	-71	-253	9.11	-186	71	39			9.11	-0.59565031	0.301456797	0.688913316	0.282352529	16383.77389
9.12	-9747	4961	11278	4649	9.12	2020	19	-277	9.12	-200	-7	-17			9.12	-0.594924563	0.302802991	0.688371726	0.283759546	16383.58981
9.13	-9727	4998	11264	4687	9.13	2013	24	-286	9.13	-328	-14	-12			9.13	-0.593683721	0.305051017	0.687493928	0.286069251	16384.14471
